// General information: 
//  MT Manager version: 2020.0.2 
//  XDA version: 2020.0.2 build 5355 rev 106296 built on 2020-10-15
// Device information: 
//  DeviceId: 008002103C
//  ProductCode: MTi-680G-8A1G6
//  Firmware Version: 1.2.2
//  Hardware Version: 1.0.0
// Device settings: 
//  Filter Profile: General_RTK(24.1)
//  Option Flags: Orientation Smoother Disabled, Position/Velocity Smoother Disabled, Continuous Zero Rotation Update Disabled, AHS Disabled, ICC Disabled
// Coordinate system: ENU
// PacketCounter Acc_X Acc_Y Acc_Z FreeAcc_E FreeAcc_N FreeAcc_U
46325 4.629286 -6.767941 5.330596 0.001259 0.085798 -0.008068
46326 4.623703 -6.740578 5.332129 0.023096 0.103644 -0.028996
46327 4.618234 -6.768351 5.327668 0.007402 0.100875 -0.014754
46328 4.629130 -6.783561 5.283895 0.003532 0.061529 -0.022489
46329 4.629930 -6.788233 5.229077 -0.003243 0.021270 -0.048234
46330 4.630054 -6.783471 5.242222 0.010188 0.039738 -0.044487
46331 4.625255 -6.796086 5.243288 0.005862 0.045954 -0.037427
46332 4.634338 -6.807500 5.275763 0.019190 0.071438 -0.007851
46333 4.648901 -6.808145 5.256170 0.032178 0.054482 -0.010963
46334 4.641311 -6.800964 5.244669 0.036166 0.057980 -0.025790
46335 4.633136 -6.816594 5.212497 0.020404 0.038075 -0.035864
46336 4.641114 -6.829249 5.212114 0.024861 0.037291 -0.023439
46337 4.643850 -6.820344 5.243247 0.046213 0.070982 -0.011965
46338 4.652936 -6.813526 5.240374 0.063564 0.073642 -0.014055
46339 4.650885 -6.839870 5.233228 0.050359 0.068626 -0.000355
46340 4.678336 -6.839300 5.234013 0.077982 0.063585 0.012593
46341 4.681586 -6.852725 5.209295 0.073318 0.045203 0.010491
46342 4.699133 -6.857394 5.183593 0.084728 0.021727 0.008515
46343 4.685335 -6.850820 5.159389 0.080677 0.018228 -0.015459
46344 4.698758 -6.869199 5.156096 0.085041 0.011426 0.002102
46345 4.708263 -6.896102 5.174828 0.085562 0.022366 0.035387
46346 4.704861 -6.901357 5.177178 0.087086 0.032388 0.038647
46347 4.709144 -6.885330 5.194024 0.111233 0.056633 0.037992
46348 4.686699 -6.880015 5.172274 0.100504 0.059167 0.012127
46349 4.697783 -6.893252 5.137051 0.099806 0.028836 0.008352
46350 4.697833 -6.930159 5.104512 0.076404 -0.000511 0.017657
46351 4.683105 -6.922396 5.102080 0.077031 0.014733 0.003839
46352 4.654830 -6.914242 5.076375 0.062967 0.017700 -0.028728
46353 4.668084 -6.919155 5.066397 0.074467 0.009736 -0.024171
46354 4.662508 -6.954139 5.069319 0.055506 0.013151 -0.000370
46355 4.675092 -6.935143 5.083522 0.086892 0.032553 -0.000751
46356 4.673658 -6.931941 5.067479 0.091436 0.029010 -0.012065
46357 4.664034 -6.919530 5.083352 0.102527 0.058800 -0.017457
46358 4.687003 -6.930534 5.098459 0.122599 0.065778 0.008895
46359 4.705030 -6.986093 5.094959 0.107092 0.046710 0.055359
46360 4.711702 -6.957426 5.135020 0.145643 0.093460 0.058234
46361 4.703279 -6.931264 5.131762 0.162469 0.110418 0.033587
46362 4.727996 -6.939507 5.115065 0.179390 0.091017 0.042467
46363 4.716280 -6.959949 5.120436 0.166206 0.103788 0.054184
46364 4.738032 -6.981120 5.100735 0.172431 0.079532 0.069501
46365 4.745230 -6.954280 5.111600 0.204502 0.101531 0.058800
46366 4.752277 -6.969395 5.108785 0.207076 0.099882 0.071381
46367 4.742826 -6.996648 5.110188 0.190809 0.106268 0.087109
46368 4.758418 -7.020741 5.112335 0.195331 0.102720 0.112737
46369 4.758578 -6.998508 5.088253 0.212457 0.097051 0.084331
46370 4.750196 -6.999825 5.061548 0.207803 0.086946 0.067682
46371 4.717665 -7.014251 5.053115 0.180432 0.099453 0.058406
46372 4.743865 -7.035605 5.030310 0.190261 0.070777 0.074596
46373 4.721351 -7.047833 5.000610 0.167735 0.061063 0.057882
46374 4.704388 -7.048790 5.004281 0.162910 0.080409 0.052256
46375 4.697081 -7.039674 4.993433 0.169054 0.085773 0.036570
46376 4.663074 -7.073793 4.958919 0.123100 0.071165 0.028184
46377 4.648677 -7.095316 4.938351 0.102831 0.062873 0.026814
46378 4.655983 -7.095922 4.914956 0.111372 0.048245 0.018961
46379 4.650848 -7.080908 4.918744 0.125692 0.066884 0.007283
46380 4.624117 -7.087296 4.939399 0.113591 0.103194 0.009466
46381 4.613413 -7.108481 4.937129 0.100231 0.108880 0.018707
46382 4.637370 -7.097293 4.927875 0.131685 0.102363 0.016945
46383 4.623272 -7.100286 4.908048 0.123310 0.099824 0.002635
46384 4.614913 -7.109660 4.895862 0.117112 0.099197 -0.000533
46385 4.634567 -7.135172 4.895298 0.124627 0.091714 0.026979
46386 4.628806 -7.159153 4.887004 0.112292 0.089579 0.037754
46387 4.631779 -7.153476 4.867463 0.122443 0.082243 0.025255
46388 4.643670 -7.144635 4.844755 0.140759 0.069163 0.013042
46389 4.622317 -7.168266 4.857914 0.120879 0.092383 0.026784
46390 4.643076 -7.175441 4.849471 0.139294 0.082969 0.037488
46391 4.627914 -7.181093 4.812701 0.125408 0.065918 0.016682
46392 4.623667 -7.160566 4.818313 0.144124 0.087441 0.001980
46393 4.601125 -7.183663 4.808788 0.119265 0.091692 0.003895
46394 4.585621 -7.198727 4.811165 0.107209 0.105398 0.008857
46395 4.608093 -7.221025 4.774065 0.112639 0.066896 0.017937
46396 4.587639 -7.224577 4.789097 0.106052 0.096926 0.018103
46397 4.552496 -7.211379 4.760609 0.089914 0.100593 -0.021821
46398 4.568279 -7.230507 4.692846 0.086324 0.039515 -0.032639
46399 4.569546 -7.262411 4.685786 0.075376 0.033170 -0.011650
46400 4.576908 -7.272851 4.706874 0.087435 0.054519 0.009469
46401 4.584957 -7.249230 4.720920 0.118983 0.079260 0.001980
46402 4.577152 -7.277460 4.699693 0.100792 0.065920 0.009356
46403 4.602936 -7.274596 4.686745 0.128786 0.054052 0.012852
46404 4.561662 -7.292280 4.649206 0.087812 0.043308 -0.010707
46405 4.576086 -7.265887 4.608387 0.116114 0.018991 -0.043213
46406 4.583933 -7.312531 4.616025 0.104726 0.018506 -0.000981
46407 4.579577 -7.314076 4.609305 0.108023 0.023349 -0.005078
46408 4.561902 -7.347688 4.599509 0.081224 0.021983 0.007496
46409 4.561721 -7.331219 4.581692 0.096421 0.020540 -0.013432
46410 4.541015 -7.326053 4.551903 0.086755 0.014074 -0.040802
46411 4.527804 -7.338231 4.535864 0.075239 0.011262 -0.045163
46412 4.528118 -7.354733 4.529617 0.073601 0.010266 -0.035476
46413 4.501228 -7.357880 4.537542 0.060925 0.036517 -0.041841
46414 4.484425 -7.361609 4.543145 0.055157 0.056209 -0.044218
46415 4.487028 -7.367366 4.542095 0.062557 0.061785 -0.039237
46416 4.492385 -7.386323 4.518399 0.060613 0.042534 -0.033324
46417 4.499545 -7.409814 4.492264 0.056833 0.019347 -0.024185
46418 4.482970 -7.399854 4.477704 0.055838 0.025193 -0.046082
46419 4.476427 -7.401833 4.474901 0.057842 0.033923 -0.048911
46420 4.469599 -7.419285 4.492459 0.054357 0.055910 -0.030788
46421 4.474994 -7.435854 4.474903 0.054979 0.042846 -0.023710
46422 4.482054 -7.443408 4.454877 0.061870 0.029683 -0.023864
46423 4.470858 -7.441307 4.452207 0.062673 0.041000 -0.031862
46424 4.475443 -7.437434 4.457428 0.078438 0.054028 -0.030513
46425 4.484252 -7.466333 4.470740 0.080442 0.062880 0.001574
46426 4.474455 -7.474087 4.453400 0.074287 0.058277 -0.004818
46427 4.478025 -7.463413 4.432124 0.088795 0.049979 -0.021085
46428 4.485897 -7.482204 4.436261 0.094170 0.054049 -0.001314
46429 4.479488 -7.488472 4.432479 0.094072 0.060181 -0.001204
46430 4.480103 -7.515969 4.418269 0.085900 0.048590 0.013861
46431 4.471234 -7.515548 4.378862 0.081670 0.026175 -0.008100
46432 4.491208 -7.487884 4.361651 0.119892 0.019788 -0.028262
46433 4.455443 -7.499790 4.344088 0.090755 0.023273 -0.043051
46434 4.465992 -7.522170 4.333742 0.094362 0.012304 -0.025608
46435 4.457819 -7.534235 4.330816 0.089964 0.017910 -0.021305
46436 4.448249 -7.534897 4.302682 0.086761 0.004891 -0.037565
46437 4.438544 -7.529190 4.321837 0.094808 0.035368 -0.038061
46438 4.448751 -7.555134 4.296941 0.093988 0.010548 -0.024288
46439 4.457921 -7.576160 4.261882 0.093634 -0.021639 -0.019194
46440 4.435316 -7.577207 4.238676 0.080761 -0.025950 -0.038687
46441 4.424934 -7.587191 4.205643 0.071142 -0.046176 -0.049952
46442 4.413354 -7.605780 4.192740 0.059037 -0.050705 -0.046211
46443 4.442839 -7.610848 4.188787 0.089751 -0.058548 -0.030843
46444 4.417039 -7.615273 4.191454 0.076531 -0.040305 -0.037754
46445 4.410015 -7.610004 4.183737 0.082504 -0.035518 -0.048400
46446 4.400511 -7.605972 4.148091 0.081348 -0.054987 -0.071202
46447 4.394290 -7.636753 4.136418 0.067271 -0.064255 -0.054813
46448 4.374658 -7.670888 4.136282 0.042457 -0.059612 -0.036718
46449 4.355300 -7.655972 4.126810 0.043435 -0.049774 -0.061100
46450 4.353759 -7.674773 4.109741 0.039082 -0.062386 -0.054256
46451 4.343587 -7.667922 4.058179 0.036537 -0.095643 -0.086146
46452 4.334675 -7.694214 4.033229 0.021010 -0.115206 -0.079889
46453 4.324805 -7.718708 4.014105 0.006871 -0.128972 -0.072930
46454 4.319099 -7.690046 4.014319 0.027783 -0.111861 -0.097967
46455 4.325355 -7.698131 4.010035 0.038169 -0.113647 -0.090589
46456 4.299743 -7.708801 4.003669 0.020357 -0.106740 -0.095999
46457 4.330915 -7.743560 3.992267 0.035915 -0.131020 -0.059525
46458 4.321981 -7.743312 3.985678 0.037896 -0.127451 -0.066360
46459 4.301542 -7.722522 3.967304 0.039630 -0.124645 -0.099508
46460 4.313395 -7.741579 3.955998 0.047800 -0.138047 -0.083884
46461 4.317639 -7.761411 3.957081 0.051231 -0.138155 -0.065748
46462 4.329962 -7.789274 3.928226 0.052592 -0.170029 -0.050210
46463 4.322676 -7.765026 3.932364 0.070466 -0.151279 -0.070969
46464 4.297005 -7.779904 3.946737 0.053735 -0.128161 -0.064193
46465 4.271278 -7.784352 3.925717 0.037070 -0.133947 -0.080491
46466 4.287204 -7.806222 3.904193 0.046244 -0.159311 -0.065025
46467 4.282603 -7.798089 3.883290 0.054081 -0.168867 -0.082168
46468 4.269944 -7.804535 3.856186 0.046609 -0.185456 -0.093637
46469 4.258933 -7.834633 3.830881 0.028346 -0.207856 -0.084624
46470 4.260394 -7.842086 3.818663 0.034436 -0.216439 -0.082987
46471 4.235891 -7.843287 3.794102 0.020205 -0.225751 -0.102569
46472 4.233418 -7.836727 3.776156 0.029362 -0.234483 -0.116213
46473 4.216829 -7.842122 3.760635 0.020978 -0.239798 -0.125247
46474 4.194051 -7.879250 3.735154 -0.010727 -0.261144 -0.115379
46475 4.188669 -7.887996 3.722485 -0.011047 -0.268816 -0.115676
46476 4.174891 -7.880713 3.676588 -0.015061 -0.299313 -0.146073
46477 4.165804 -7.890278 3.646545 -0.021631 -0.321958 -0.154333
46478 4.171446 -7.921204 3.630214 -0.024649 -0.343238 -0.133442
46479 4.168630 -7.945326 3.612848 -0.031532 -0.361098 -0.122028
46480 4.145700 -7.942723 3.600425 -0.040948 -0.360226 -0.138689
46481 4.139310 -7.937924 3.580903 -0.036310 -0.370899 -0.153040
46482 4.125933 -7.962532 3.557416 -0.053243 -0.391050 -0.148048
46483 4.137796 -7.975370 3.548737 -0.040651 -0.403035 -0.135989
46484 4.124995 -7.991330 3.528931 -0.051917 -0.418289 -0.136236
46485 4.126204 -7.965482 3.554540 -0.023803 -0.385153 -0.146202
46486 4.120429 -7.955576 3.550201 -0.014054 -0.381605 -0.158295
46487 4.131588 -7.973074 3.584846 0.002028 -0.356127 -0.125274
46488 4.158092 -7.994865 3.570029 0.021960 -0.381785 -0.102424
46489 4.160832 -7.988807 3.607602 0.042928 -0.344560 -0.091003
46490 4.158003 -7.967969 3.607360 0.061378 -0.335870 -0.109262
46491 4.163309 -7.977837 3.604282 0.071101 -0.341037 -0.100250
46492 4.163651 -7.984038 3.602708 0.078536 -0.342607 -0.095696
46493 4.163581 -7.992259 3.609241 0.085932 -0.337429 -0.086406
46494 4.159070 -7.968010 3.647737 0.109998 -0.292854 -0.092686
46495 4.149886 -7.976148 3.665557 0.111056 -0.275004 -0.082703
46496 4.165972 -8.004637 3.661378 0.121002 -0.290876 -0.054560
46497 4.166678 -8.015329 3.665750 0.127834 -0.289614 -0.043867
46498 4.144336 -8.004089 3.648841 0.122737 -0.294165 -0.069082
46499 4.125984 -7.986424 3.622134 0.122867 -0.307043 -0.101870
46500 4.112918 -8.005186 3.611778 0.111971 -0.317688 -0.096020
46501 4.099432 -8.034024 3.624337 0.098917 -0.310610 -0.072838
46502 4.056082 -8.022933 3.619888 0.077468 -0.298155 -0.101314
46503 4.030882 -8.030457 3.613396 0.062267 -0.298977 -0.107938
46504 3.994370 -8.060123 3.612090 0.027124 -0.298281 -0.098730
46505 3.970508 -8.077611 3.579727 0.004848 -0.326125 -0.106849
46506 3.938238 -8.105767 3.574464 -0.026308 -0.330103 -0.098614
46507 3.909328 -8.112923 3.568112 -0.044391 -0.330216 -0.106749
46508 3.888855 -8.109615 3.580471 -0.047821 -0.313219 -0.112656
46509 3.884011 -8.133657 3.560019 -0.055088 -0.338803 -0.102873
46510 3.891498 -8.153927 3.530183 -0.050962 -0.375543 -0.095079
46511 3.879141 -8.162024 3.530856 -0.054275 -0.375383 -0.092982
46512 3.873315 -8.135073 3.533203 -0.035042 -0.365210 -0.116663
46513 3.861223 -8.141902 3.546900 -0.035822 -0.353183 -0.110294
46514 3.865907 -8.154225 3.517202 -0.030412 -0.387175 -0.110171
46515 3.862376 -8.154370 3.514539 -0.022767 -0.390793 -0.112551
46516 3.846274 -8.137792 3.502656 -0.019471 -0.394445 -0.137404
46517 3.833893 -8.142058 3.516703 -0.019281 -0.381842 -0.133116
46518 3.811247 -8.130989 3.537907 -0.020060 -0.355433 -0.142662
46519 3.794813 -8.139041 3.553745 -0.025123 -0.341577 -0.136043
46520 3.777901 -8.159904 3.567909 -0.036868 -0.333181 -0.119596
46521 3.755919 -8.135330 3.566883 -0.033680 -0.323692 -0.148959
46522 3.730345 -8.136299 3.531977 -0.049806 -0.351517 -0.171995
46523 3.734990 -8.166320 3.546178 -0.046831 -0.352638 -0.139598
46524 3.704723 -8.156529 3.551336 -0.057237 -0.339749 -0.157263
46525 3.684612 -8.156860 3.569980 -0.061537 -0.321116 -0.157191
46526 3.671212 -8.153154 3.578750 -0.059414 -0.312209 -0.161887
46527 3.635576 -8.175952 3.605682 -0.086858 -0.288687 -0.145513
46528 3.609450 -8.169587 3.597397 -0.096742 -0.291345 -0.164010
46529 3.606664 -8.158498 3.599416 -0.082905 -0.289820 -0.173535
46530 3.610004 -8.159258 3.565536 -0.073573 -0.326480 -0.185366
46531 3.569594 -8.196218 3.576085 -0.113617 -0.321441 -0.165316
46532 3.523732 -8.218717 3.554644 -0.155856 -0.339992 -0.172211
46533 3.456280 -8.208546 3.588081 -0.195505 -0.292579 -0.192145
46534 3.381291 -8.183216 3.612665 -0.236305 -0.246476 -0.230973
46535 3.376954 -8.160178 3.613427 -0.218678 -0.243115 -0.251434
46536 3.321748 -8.209815 3.589178 -0.281711 -0.270632 -0.239780
46537 3.243551 -8.231133 3.545885 -0.355013 -0.300197 -0.267856
46538 3.304188 -8.185287 3.503992 -0.275155 -0.347421 -0.301064
46539 3.454068 -8.206118 3.484901 -0.143109 -0.420511 -0.236979
46540 3.556392 -8.308232 3.509530 -0.083697 -0.466289 -0.104463
46541 3.572001 -8.371581 3.516662 -0.086220 -0.491048 -0.043010
46542 3.514438 -8.350973 3.534606 -0.115320 -0.458662 -0.073902
46543 3.408070 -8.309264 3.584376 -0.174831 -0.377003 -0.126853
46544 3.281970 -8.241426 3.587871 -0.246453 -0.323578 -0.227477
46545 3.250127 -8.206367 3.513594 -0.258541 -0.377784 -0.298671
46546 3.234047 -8.256505 3.445526 -0.293002 -0.458222 -0.290179
46547 3.180281 -8.269632 3.439773 -0.337337 -0.460038 -0.300563
46548 3.101116 -8.262452 3.509955 -0.385825 -0.379948 -0.305628
46549 3.115003 -8.223259 3.569712 -0.338780 -0.325339 -0.309009
46550 3.140254 -8.220738 3.580188 -0.303970 -0.330601 -0.297921
46551 3.226533 -8.244473 3.539629 -0.232476 -0.407872 -0.264647
46552 3.298454 -8.316853 3.500341 -0.194436 -0.496010 -0.195178
46553 3.327157 -8.394298 3.490407 -0.193781 -0.547667 -0.124482
46554 3.272886 -8.389111 3.560444 -0.221507 -0.476456 -0.118793
46555 3.153423 -8.335729 3.683499 -0.280698 -0.323682 -0.153843
46556 3.038838 -8.230923 3.735077 -0.322643 -0.219694 -0.259889
46557 3.001867 -8.203604 3.722919 -0.336385 -0.220842 -0.300516
46558 2.958971 -8.277588 3.672300 -0.403548 -0.288592 -0.273932
46559 2.910802 -8.320156 3.646667 -0.458828 -0.322295 -0.265109
46560 2.870526 -8.307786 3.693647 -0.474683 -0.274701 -0.269320
46561 2.816466 -8.256474 3.796339 -0.479380 -0.160489 -0.287353
46562 2.804726 -8.227214 3.881025 -0.457833 -0.081648 -0.279928
46563 2.785720 -8.247682 3.841679 -0.479413 -0.129249 -0.285355
46564 2.767836 -8.277585 3.743315 -0.511621 -0.233363 -0.307531
46565 2.756791 -8.247814 3.711890 -0.504439 -0.259185 -0.349432
46566 2.790972 -8.243147 3.746524 -0.458704 -0.247201 -0.327150
46567 2.960749 -8.296691 3.791118 -0.314439 -0.285108 -0.206905
46568 3.050403 -8.350253 3.848090 -0.240757 -0.289421 -0.108040
46569 3.015993 -8.462749 3.926186 -0.300720 -0.259601 0.008702
46570 2.771031 -8.436471 4.033936 -0.488806 -0.095640 -0.047304
46571 2.590036 -8.279408 4.040834 -0.578291 0.005006 -0.235271
46572 2.542494 -8.222571 3.999255 -0.595551 -0.010378 -0.316040
46573 2.556884 -8.249666 3.928555 -0.596059 -0.098339 -0.318730
46574 2.544040 -8.312194 3.885549 -0.632216 -0.166423 -0.288596
46575 2.553805 -8.337145 3.937485 -0.620258 -0.143250 -0.241673
46576 2.519673 -8.328745 4.076335 -0.622984 -0.018541 -0.199015
46577 2.517570 -8.291217 4.196190 -0.587396 0.090101 -0.178569
46578 2.552240 -8.301182 4.206265 -0.552777 0.073643 -0.154252
46579 2.584192 -8.343851 4.105960 -0.548751 -0.051984 -0.151772
46580 2.540177 -8.381984 4.054916 -0.605486 -0.110159 -0.155887
46581 2.448946 -8.381467 4.087162 -0.677950 -0.066758 -0.170774
46582 2.391191 -8.314540 4.156057 -0.688388 0.023086 -0.214514
46583 2.317858 -8.238535 4.221789 -0.709950 0.118080 -0.271946
46584 2.291134 -8.249359 4.274311 -0.726774 0.156620 -0.247452
46585 2.308068 -8.302847 4.244800 -0.732715 0.094342 -0.209856
46586 2.272368 -8.314196 4.203631 -0.770668 0.052117 -0.229379
46587 2.265291 -8.283808 4.257796 -0.753372 0.101250 -0.232485
46588 2.233157 -8.213561 4.392749 -0.731847 0.243446 -0.240500
46589 2.203462 -8.200810 4.490762 -0.736520 0.331605 -0.215807
46590 2.213962 -8.219571 4.536350 -0.724723 0.349930 -0.175631
46591 2.207322 -8.247499 4.550640 -0.736742 0.342469 -0.147168
46592 2.198670 -8.223130 4.556662 -0.730595 0.347558 -0.166855
46593 2.202422 -8.208344 4.585695 -0.713908 0.365488 -0.164240
46594 2.191192 -8.203940 4.643524 -0.711232 0.409702 -0.144433
46595 2.204669 -8.209578 4.682229 -0.693259 0.426103 -0.117288
46596 2.204424 -8.202012 4.686996 -0.687090 0.421604 -0.120814
46597 2.192169 -8.221189 4.677325 -0.704861 0.398209 -0.112284
46598 2.154998 -8.218394 4.684842 -0.733942 0.405718 -0.121851
46599 2.170534 -8.217654 4.693404 -0.716399 0.397521 -0.113194
46600 2.136688 -8.190795 4.733459 -0.728497 0.441693 -0.126824
46601 2.121473 -8.158046 4.735857 -0.726715 0.449653 -0.156990
46602 2.128421 -8.177384 4.736904 -0.726782 0.430269 -0.137680
46603 2.107246 -8.209044 4.704796 -0.762065 0.385837 -0.131997
46604 2.067974 -8.207645 4.664632 -0.801800 0.352658 -0.163168
46605 2.063009 -8.194928 4.675532 -0.799081 0.358055 -0.169756
46606 2.041094 -8.183439 4.700640 -0.810381 0.380761 -0.173793
46607 2.042095 -8.208342 4.743345 -0.813495 0.397931 -0.132423
46608 2.039969 -8.216160 4.737637 -0.819763 0.380504 -0.128859
46609 2.034683 -8.212264 4.710653 -0.827513 0.349947 -0.146004
46610 2.006838 -8.202024 4.709185 -0.849656 0.351484 -0.163271
46611 2.006249 -8.205770 4.712979 -0.852469 0.343767 -0.158314
46612 2.015221 -8.193820 4.737368 -0.837667 0.357129 -0.153836
46613 2.003242 -8.180304 4.735952 -0.845141 0.355282 -0.169111
46614 1.989425 -8.169495 4.712530 -0.858868 0.334154 -0.193155
46615 2.000143 -8.159273 4.721976 -0.846244 0.333589 -0.193838
46616 2.031398 -8.167068 4.752030 -0.819728 0.337631 -0.163692
46617 2.035725 -8.165450 4.776402 -0.815165 0.349110 -0.152112
46618 2.070949 -8.135091 4.788974 -0.772635 0.351597 -0.160636
46619 2.092064 -8.119387 4.801888 -0.749030 0.353393 -0.161096
46620 2.090487 -8.109599 4.837474 -0.745377 0.379761 -0.152599
46621 2.115517 -8.103166 4.852462 -0.722179 0.378594 -0.143205
46622 2.146593 -8.095052 4.856897 -0.694848 0.367223 -0.138474
46623 2.158579 -8.100438 4.902667 -0.684517 0.392530 -0.108438
46624 2.184973 -8.084131 4.948758 -0.652290 0.421815 -0.091718
46625 2.195571 -8.059204 4.945259 -0.638234 0.416891 -0.110729
46626 2.223791 -8.066113 4.948407 -0.620591 0.399762 -0.095063
46627 2.244781 -8.049602 4.928043 -0.603474 0.373942 -0.112228
46628 2.282336 -8.036735 4.914017 -0.572386 0.346841 -0.118372
46629 2.296441 -8.040144 4.941230 -0.563155 0.356515 -0.098160
46630 2.341990 -8.031425 4.952931 -0.523030 0.347609 -0.085949
46631 2.384947 -8.030133 4.990832 -0.484669 0.358897 -0.055599
46632 2.401939 -7.999200 4.996870 -0.462015 0.363008 -0.072863
46633 2.431937 -7.990007 4.984534 -0.439620 0.338553 -0.077384
46634 2.455317 -7.987376 4.925773 -0.432607 0.273965 -0.101330
46635 2.486752 -7.998298 4.925523 -0.415839 0.251612 -0.083101
46636 2.501483 -7.988142 4.920795 -0.405939 0.239190 -0.089346
46637 2.541376 -7.976566 4.964543 -0.365726 0.260701 -0.065192
46638 2.571865 -7.966104 4.984025 -0.337975 0.264071 -0.054879
46639 2.569041 -7.979390 4.974526 -0.354418 0.244150 -0.049668
46640 2.599147 -7.965706 4.901133 -0.339609 0.169202 -0.088052
46641 2.597932 -7.933866 4.869108 -0.338936 0.147291 -0.130313
46642 2.625922 -7.939546 4.884719 -0.321170 0.141863 -0.109529
46643 2.646357 -7.944779 4.911130 -0.308551 0.147904 -0.086011
46644 2.661470 -7.941580 4.943776 -0.296127 0.164467 -0.067807
46645 2.683500 -7.900341 4.926877 -0.268674 0.151668 -0.102995
46646 2.697023 -7.900037 4.931776 -0.263141 0.143885 -0.096725
46647 2.709721 -7.907896 4.917163 -0.264824 0.116524 -0.093878
46648 2.734543 -7.919608 4.874423 -0.261649 0.059227 -0.098326
46649 2.720445 -7.894747 4.887396 -0.269212 0.077386 -0.116402
46650 2.748773 -7.871093 4.923150 -0.236007 0.100101 -0.108877
46651 2.750506 -7.875226 4.947074 -0.240568 0.110438 -0.093060
46652 2.771155 -7.885325 4.935030 -0.235945 0.081276 -0.084709
46653 2.788777 -7.877180 4.887998 -0.231512 0.030822 -0.109716
46654 2.803251 -7.852758 4.881304 -0.216841 0.022428 -0.128411
46655 2.821677 -7.850918 4.919485 -0.201765 0.041470 -0.104935
46656 2.858201 -7.848217 4.940900 -0.173014 0.040125 -0.084978
46657 2.883249 -7.843141 4.960272 -0.153505 0.041791 -0.071474
46658 2.920656 -7.824046 4.952018 -0.121228 0.021689 -0.079389
46659 2.915957 -7.796247 4.953187 -0.120895 0.027331 -0.102609
46660 2.941628 -7.782408 4.947088 -0.101021 0.010649 -0.108835
46661 2.977234 -7.784274 4.949883 -0.077919 -0.008379 -0.094810
46662 2.995785 -7.788932 4.966514 -0.068871 -0.010726 -0.076797
46663 3.027438 -7.767772 5.011390 -0.032716 0.016191 -0.060707
46664 3.053094 -7.742982 5.047377 -0.001395 0.039084 -0.053859
46665 3.080319 -7.757206 5.059387 0.010328 0.025209 -0.027715
46666 3.102454 -7.753525 5.073717 0.025781 0.022425 -0.016219
46667 3.107796 -7.717629 5.065511 0.037662 0.019422 -0.047276
46668 3.092600 -7.689218 5.064689 0.029301 0.026777 -0.075039
46669 3.119612 -7.710876 5.094093 0.040300 0.024297 -0.033974
46670 3.123906 -7.715333 5.109660 0.036956 0.024929 -0.020926
46671 3.123464 -7.687452 5.120302 0.043360 0.036490 -0.037558
46672 3.137836 -7.661287 5.121292 0.060532 0.033798 -0.053112
46673 3.124707 -7.649862 5.132688 0.048814 0.043503 -0.060294
46674 3.150733 -7.656693 5.127325 0.060390 0.017691 -0.049343
46675 3.170104 -7.649722 5.135521 0.074831 0.011172 -0.044308
46676 3.166975 -7.652039 5.158496 0.067345 0.020898 -0.031338
46677 3.178385 -7.654002 5.164917 0.070566 0.011922 -0.022703
46678 3.174133 -7.631046 5.194075 0.075050 0.037946 -0.026688
46679 3.171545 -7.669900 5.189444 0.047237 0.009310 0.000667
46680 3.186280 -7.631326 5.176877 0.068983 -0.000387 -0.031530
46681 3.185222 -7.606830 5.187479 0.074437 0.009301 -0.045430
46682 3.186643 -7.617807 5.144578 0.057005 -0.041062 -0.059110
46683 3.187027 -7.609644 5.149707 0.055252 -0.043305 -0.062658
46684 3.201183 -7.600482 5.164331 0.067471 -0.042396 -0.057494
46685 3.209010 -7.599335 5.225380 0.077833 -0.004068 -0.023265
46686 3.226833 -7.564186 5.232166 0.104037 -0.000376 -0.041309
46687 3.229240 -7.553774 5.201497 0.099639 -0.032315 -0.065040
46688 3.235874 -7.572366 5.184720 0.087378 -0.066353 -0.057389
46689 3.241671 -7.558553 5.188451 0.092916 -0.069671 -0.064287
46690 3.292491 -7.530561 5.262129 0.155570 -0.026196 -0.029984
46691 3.343558 -7.532083 5.252142 0.190821 -0.064681 -0.017638
46692 3.243142 -7.540361 5.280939 0.098133 -0.015793 -0.028012
46693 3.208975 -7.550801 5.257921 0.053498 -0.036091 -0.043382
46694 3.222622 -7.568724 5.224540 0.044642 -0.086227 -0.043200
46695 3.259726 -7.558797 5.241570 0.077699 -0.092466 -0.029692
46696 3.266261 -7.550286 5.265795 0.084850 -0.081474 -0.021020
46697 3.281595 -7.503890 5.347830 0.127235 -0.010948 -0.007199
46698 3.304087 -7.478756 5.337152 0.150532 -0.028094 -0.025091
46699 3.293643 -7.448510 5.274895 0.139205 -0.072651 -0.085832
46700 3.309118 -7.467119 5.268582 0.136451 -0.102036 -0.069928
46701 3.326587 -7.493284 5.318635 0.140876 -0.088979 -0.016640
46702 3.342852 -7.475874 5.400661 0.170729 -0.031217 0.020378
46703 3.342124 -7.445750 5.435972 0.184233 -0.000019 0.016527
46704 3.332561 -7.431327 5.431987 0.176294 -0.003977 0.000254
46705 3.325200 -7.427379 5.399805 0.160349 -0.036156 -0.022874
46706 3.357942 -7.471238 5.311219 0.146178 -0.150304 -0.027663
46707 3.347176 -7.424339 5.290890 0.150105 -0.153211 -0.078426
46708 3.333112 -7.410117 5.372043 0.152610 -0.085871 -0.048821
46709 3.327010 -7.410792 5.467523 0.157206 -0.016577 0.002897
46710 3.334881 -7.413072 5.481836 0.159304 -0.019529 0.015258
46711 3.340654 -7.400738 5.472424 0.162570 -0.034716 0.002542
46712 3.349876 -7.381854 5.423488 0.165419 -0.080783 -0.036198
46713 3.341961 -7.372683 5.400710 0.153063 -0.102503 -0.058520
46714 3.331684 -7.376553 5.416341 0.139330 -0.097664 -0.050169
46715 3.348890 -7.372209 5.463595 0.158303 -0.075083 -0.021290
46716 3.353920 -7.369398 5.530091 0.169727 -0.032690 0.015713
46717 3.350630 -7.342391 5.549977 0.177843 -0.014373 0.005454
46718 3.387246 -7.352143 5.550188 0.198449 -0.043811 0.024984
46719 3.370413 -7.357137 5.554316 0.176751 -0.046337 0.025672
46720 3.362283 -7.329827 5.547522 0.176432 -0.047388 -0.001437
46721 3.323285 -7.284714 5.572153 0.164303 -0.002643 -0.034179
46722 3.333244 -7.291271 5.619733 0.172036 0.018154 0.001204
46723 3.349157 -7.296346 5.674579 0.187018 0.043048 0.041622
46724 3.347030 -7.303059 5.708712 0.182372 0.057804 0.065628
46725 3.326209 -7.294098 5.704222 0.162997 0.056088 0.049677
46726 3.309000 -7.262373 5.690989 0.156781 0.055929 0.012771
46727 3.304246 -7.270680 5.688067 0.142791 0.041672 0.015914
46728 3.307108 -7.261469 5.711780 0.148517 0.052914 0.023697
46729 3.298862 -7.246211 5.746066 0.150242 0.080054 0.029447
46730 3.302454 -7.225829 5.808139 0.169245 0.126539 0.051336
46731 3.327270 -7.214356 5.838571 0.196256 0.135009 0.068658
46732 3.322266 -7.241926 5.846239 0.174520 0.120809 0.092301
46733 3.314372 -7.217692 5.828724 0.171984 0.110357 0.061690
46734 3.302685 -7.189656 5.848275 0.174746 0.132976 0.048512
46735 3.309846 -7.196389 5.845033 0.171896 0.114200 0.054201
46736 3.309585 -7.186804 5.864435 0.175157 0.123844 0.058473
46737 3.332663 -7.215974 5.869966 0.175913 0.095683 0.091134
46738 3.318673 -7.188883 5.858712 0.170970 0.094607 0.060040
46739 3.291804 -7.168093 5.869660 0.156085 0.113789 0.042416
46740 3.309189 -7.183634 5.885162 0.160767 0.102146 0.068881
46741 3.305400 -7.171571 5.877961 0.157633 0.093594 0.054655
46742 3.297263 -7.170237 5.856557 0.143112 0.071156 0.038591
46743 3.275484 -7.163462 5.873693 0.126339 0.087438 0.036692
46744 3.271253 -7.125913 5.913978 0.144364 0.128034 0.031446
46745 3.252752 -7.156662 5.936942 0.112269 0.131122 0.061852
46746 3.253753 -7.190643 5.933316 0.090191 0.103833 0.085269
46747 3.245971 -7.126919 5.926585 0.110443 0.120352 0.031923
46748 3.225525 -7.126950 5.934878 0.089705 0.126558 0.030355
46749 3.232040 -7.133793 5.973938 0.093738 0.142265 0.060859
46750 3.243652 -7.123878 5.994132 0.107474 0.148502 0.069533
46751 3.234288 -7.112949 6.033623 0.107600 0.179454 0.082134
46752 3.228126 -7.084509 6.064796 0.117884 0.210068 0.078043
46753 3.220196 -7.060169 6.088206 0.123225 0.233917 0.071819
46754 3.246778 -7.080156 6.102042 0.132963 0.215466 0.103663
46755 3.268016 -7.061245 6.095029 0.154734 0.200327 0.092812
46756 3.239679 -7.074719 6.134783 0.126502 0.229058 0.117462
46757 3.251957 -7.032209 6.161366 0.159144 0.254638 0.106612
46758 3.237157 -7.042780 6.165796 0.137675 0.251659 0.112436
46759 3.234338 -7.038291 6.185166 0.136786 0.261374 0.120161
46760 3.230176 -7.029065 6.170023 0.130993 0.247080 0.103242
46761 3.238482 -7.001486 6.175451 0.149124 0.251586 0.089405
46762 3.230278 -7.034914 6.180512 0.121524 0.236030 0.114366
46763 3.234913 -7.040835 6.193989 0.120619 0.233558 0.128568
46764 3.239744 -7.019579 6.181552 0.129503 0.223222 0.107422
46765 3.249162 -7.011850 6.185304 0.137881 0.217243 0.107394
46766 3.225303 -6.985642 6.190241 0.128761 0.235517 0.083816
46767 3.251137 -7.014191 6.202424 0.133739 0.212786 0.120563
46768 3.273232 -7.031116 6.190260 0.137342 0.177972 0.132854
46769 3.255189 -6.987724 6.158766 0.135582 0.173482 0.076602
46770 3.226616 -6.986016 6.195659 0.115508 0.207615 0.088696
46771 3.197889 -6.988433 6.175448 0.083139 0.196176 0.068943
46772 3.220623 -6.997012 6.181702 0.094860 0.179403 0.086549
46773 3.226268 -7.000670 6.169554 0.091692 0.158136 0.083778
46774 3.214283 -6.984632 6.184182 0.089442 0.174568 0.077402
46775 3.208127 -6.978242 6.196069 0.085955 0.181899 0.078235
46776 3.192760 -6.996575 6.162141 0.053903 0.147040 0.065787
46777 3.178700 -6.994496 6.167573 0.040776 0.151226 0.063164
46778 3.183106 -6.982494 6.140125 0.042242 0.126130 0.039245
46779 3.171185 -6.973489 6.136388 0.032740 0.125593 0.026696
46780 3.164085 -6.972689 6.142205 0.024776 0.126409 0.027486
46781 3.177128 -6.970065 6.123566 0.029930 0.100220 0.018472
46782 3.159001 -6.968366 6.125294 0.012557 0.103436 0.012490
46783 3.143114 -6.952324 6.098696 -0.000663 0.090589 -0.020520
46784 3.131533 -6.968420 6.113540 -0.019755 0.093219 -0.003544
46785 3.138863 -6.958129 6.105071 -0.013576 0.081101 -0.013697
46786 3.127546 -6.955767 6.097860 -0.026927 0.075110 -0.023493
46787 3.121640 -6.938407 6.108289 -0.024606 0.086937 -0.031310
46788 3.112484 -6.948639 6.125124 -0.038550 0.092568 -0.016504
46789 3.101837 -6.959734 6.108287 -0.060484 0.072885 -0.022482
46790 3.121860 -6.942941 6.107118 -0.039031 0.063799 -0.028616
46791 3.110447 -6.952748 6.088912 -0.061198 0.044014 -0.036661
46792 3.076657 -6.920206 6.069242 -0.079287 0.052829 -0.083077
46793 3.092485 -6.922504 6.083325 -0.069053 0.048672 -0.067503
46794 3.094982 -6.930621 6.095361 -0.073509 0.046415 -0.053417
46795 3.091081 -6.939888 6.115257 -0.082482 0.052482 -0.035693
46796 3.107792 -6.920956 6.141582 -0.057961 0.066914 -0.027206
46797 3.083791 -6.859297 6.165591 -0.044695 0.117993 -0.063688
46798 3.086299 -6.900352 6.200834 -0.062682 0.118294 -0.011681
46799 3.126632 -6.898591 6.177738 -0.036874 0.076254 -0.014179
46800 3.120859 -6.900842 6.176970 -0.047297 0.070802 -0.014924
46801 3.110165 -6.879242 6.208960 -0.043048 0.103335 -0.013561
46802 3.099427 -6.864026 6.235030 -0.043286 0.128481 -0.011374
46803 3.082570 -6.872661 6.252734 -0.062882 0.139071 0.000410
46804 3.099147 -6.854566 6.257592 -0.042988 0.136609 -0.003798
46805 3.086177 -6.834209 6.240470 -0.049772 0.132507 -0.033096
46806 3.082158 -6.840246 6.234924 -0.061528 0.120923 -0.033599
46807 3.111526 -6.833867 6.267650 -0.032102 0.128225 -0.007758
46808 3.100917 -6.843498 6.305220 -0.043539 0.150242 0.019364
46809 3.107017 -6.832209 6.327197 -0.032653 0.162560 0.027420
46810 3.091869 -6.792570 6.323709 -0.028015 0.178514 -0.007447
46811 3.097793 -6.790062 6.298668 -0.030249 0.151482 -0.023037
46812 3.119300 -6.819515 6.315193 -0.029570 0.133334 0.015198
46813 3.121485 -6.839308 6.296351 -0.045666 0.102170 0.017873
46814 3.115957 -6.803360 6.333542 -0.027690 0.142579 0.014622
46815 3.098825 -6.797653 6.379601 -0.034176 0.180941 0.034424
46816 3.103164 -6.780671 6.375280 -0.025726 0.176518 0.021352
46817 3.110596 -6.795366 6.326098 -0.040100 0.122305 0.002794
46818 3.125211 -6.783898 6.294522 -0.031022 0.090150 -0.020503
46819 3.101571 -6.786941 6.283291 -0.057355 0.084406 -0.033230
46820 3.114844 -6.774849 6.290048 -0.042236 0.081680 -0.032947
46821 3.103085 -6.776002 6.310534 -0.052034 0.094834 -0.022835
46822 3.096370 -6.786036 6.317669 -0.065307 0.091477 -0.013435
46823 3.074180 -6.782949 6.322167 -0.084078 0.099643 -0.019902
46824 3.078859 -6.742637 6.316009 -0.062462 0.104118 -0.050260
46825 3.073128 -6.769516 6.286760 -0.090495 0.065374 -0.052231
46826 3.075506 -6.761633 6.285631 -0.087680 0.059713 -0.057628
46827 3.066353 -6.779944 6.278335 -0.109973 0.042791 -0.052625
46828 3.063458 -6.746287 6.305434 -0.092188 0.072612 -0.059396
46829 3.044256 -6.757741 6.321382 -0.114467 0.080719 -0.047431
46830 3.026353 -6.778350 6.292218 -0.148925 0.050688 -0.057843
46831 3.031134 -6.757542 6.286867 -0.137771 0.046633 -0.074116
46832 3.028588 -6.728308 6.286939 -0.126991 0.054183 -0.095073
46833 3.017336 -6.695159 6.311080 -0.116925 0.085277 -0.105951
46834 2.989934 -6.726906 6.334095 -0.155779 0.093221 -0.078076
46835 3.008741 -6.717989 6.340488 -0.137729 0.085507 -0.073925
46836 3.005687 -6.680806 6.357567 -0.119973 0.109410 -0.089368
46837 2.979952 -6.686821 6.359714 -0.147414 0.113020 -0.092174
46838 3.000683 -6.708703 6.378884 -0.142771 0.099183 -0.057908
46839 3.001369 -6.697711 6.388877 -0.137657 0.103915 -0.058686
46840 3.004888 -6.678922 6.411240 -0.123805 0.119694 -0.055804
46841 2.968564 -6.675189 6.433402 -0.150597 0.148024 -0.055653
46842 2.958920 -6.670288 6.446517 -0.156787 0.157095 -0.053511
46843 2.994673 -6.698981 6.449209 -0.147031 0.120572 -0.020472
46844 2.993563 -6.664986 6.442539 -0.133796 0.124541 -0.048373
46845 2.975682 -6.660603 6.432135 -0.151391 0.120394 -0.063946
46846 3.002204 -6.647832 6.445906 -0.123986 0.115537 -0.054972
46847 2.985806 -6.658093 6.470756 -0.142054 0.129537 -0.036949
46848 2.975058 -6.661180 6.453130 -0.159465 0.112912 -0.049879
46849 2.994152 -6.648492 6.439066 -0.143460 0.091516 -0.061543
46850 2.975750 -6.617784 6.443779 -0.144014 0.111187 -0.085251
46851 2.963486 -6.631454 6.464129 -0.161827 0.118215 -0.066517
46852 2.978574 -6.625906 6.478198 -0.147904 0.116033 -0.056087
46853 2.993301 -6.639058 6.469972 -0.149124 0.088894 -0.047814
46854 2.964478 -6.622720 6.477776 -0.165631 0.109264 -0.063052
46855 2.960233 -6.607779 6.463806 -0.167155 0.100813 -0.083760
46856 2.967258 -6.587386 6.466043 -0.153753 0.100863 -0.093775
46857 2.978215 -6.601843 6.465296 -0.157629 0.080725 -0.080959
46858 2.987824 -6.586800 6.475524 -0.143744 0.082886 -0.081211
46859 2.980342 -6.571764 6.472295 -0.146003 0.083747 -0.095910
46860 2.983817 -6.560466 6.495783 -0.136580 0.096691 -0.086768
46861 2.992921 -6.578074 6.500257 -0.142897 0.079495 -0.068994
46862 2.998825 -6.577779 6.509193 -0.140820 0.075530 -0.061334
46863 2.989798 -6.533155 6.515448 -0.125593 0.097999 -0.090035
46864 2.975419 -6.526868 6.532774 -0.134609 0.113038 -0.087319
46865 3.014502 -6.557907 6.540013 -0.124278 0.076165 -0.049020
46866 3.004942 -6.550083 6.540044 -0.131882 0.077133 -0.057328
46867 2.996855 -6.543031 6.548749 -0.136985 0.082990 -0.058832
46868 2.982776 -6.515272 6.580760 -0.130508 0.118657 -0.060469
46869 2.958393 -6.517784 6.588189 -0.154225 0.127583 -0.061664
46870 2.995234 -6.515296 6.587002 -0.128134 0.101078 -0.052173
46871 2.980416 -6.520665 6.591224 -0.146687 0.101374 -0.050532
46872 2.993561 -6.488016 6.596923 -0.120618 0.106008 -0.064150
46873 2.983933 -6.467941 6.596260 -0.121258 0.112115 -0.081024
46874 2.982864 -6.489548 6.603395 -0.137806 0.099738 -0.062183
46875 2.973401 -6.492648 6.603074 -0.151598 0.095114 -0.063389
46876 2.980240 -6.452029 6.600588 -0.127703 0.100937 -0.089771
46877 2.964600 -6.437336 6.617454 -0.132939 0.120069 -0.093122
46878 2.982195 -6.455976 6.620374 -0.133962 0.096332 -0.073107
46879 3.013433 -6.455939 6.626117 -0.113012 0.076225 -0.059142
46880 2.995295 -6.455132 6.656758 -0.125499 0.099848 -0.044740
46881 2.990356 -6.417262 6.683001 -0.106804 0.130900 -0.053457
46882 2.972459 -6.409097 6.707891 -0.115925 0.153911 -0.047642
46883 2.981551 -6.402845 6.714253 -0.108444 0.148566 -0.044421
46884 2.992875 -6.410751 6.701332 -0.111378 0.121458 -0.044306
46885 2.976350 -6.390000 6.703161 -0.116537 0.133436 -0.061974
46886 2.981139 -6.373883 6.735774 -0.101472 0.153454 -0.048686
46887 2.990737 -6.364228 6.753479 -0.089712 0.157398 -0.039746
46888 3.004182 -6.389071 6.759856 -0.097348 0.135079 -0.014709
46889 2.992440 -6.360189 6.745013 -0.097293 0.136455 -0.047481
46890 2.988102 -6.339040 6.731764 -0.095632 0.131537 -0.071711
46891 2.960753 -6.341730 6.758878 -0.118034 0.156083 -0.060122
46892 2.992907 -6.352918 6.764101 -0.103464 0.129144 -0.038816
46893 2.973295 -6.345928 6.771242 -0.118145 0.140129 -0.044732
46894 2.964600 -6.328749 6.775918 -0.118973 0.148377 -0.055444
46895 2.980416 -6.312536 6.774517 -0.102207 0.138758 -0.061786
46896 2.973093 -6.316689 6.780475 -0.114279 0.137110 -0.057291
46897 2.990790 -6.326545 6.748693 -0.117827 0.093113 -0.067086
46898 2.998605 -6.317280 6.773520 -0.106624 0.102851 -0.053413
46899 3.011735 -6.271683 6.813118 -0.066345 0.137012 -0.051273
46900 3.005556 -6.289449 6.820952 -0.085764 0.129776 -0.036302
46901 3.023490 -6.281308 6.835938 -0.069205 0.126405 -0.025339
46902 3.022573 -6.283780 6.822502 -0.079475 0.108808 -0.033302
46903 3.047470 -6.251489 6.835755 -0.043676 0.112016 -0.036837
46904 3.039906 -6.251800 6.843973 -0.053523 0.113970 -0.033308
46905 3.033783 -6.252896 6.852394 -0.062519 0.114959 -0.028666
46906 3.046232 -6.254526 6.858193 -0.058082 0.103603 -0.019520
46907 3.070760 -6.228222 6.868023 -0.026631 0.101583 -0.021583
46908 3.053488 -6.208414 6.887541 -0.029465 0.126349 -0.026161
46909 3.058512 -6.198954 6.897148 -0.023293 0.126940 -0.023808
46910 3.093854 -6.231586 6.892563 -0.022376 0.081220 0.005307
46911 3.074187 -6.198133 6.918262 -0.017370 0.117759 -0.004362
46912 3.081923 -6.158804 6.942334 0.011977 0.140788 -0.010013
46913 3.093667 -6.176543 6.947284 0.005729 0.121519 0.008647
46914 3.086538 -6.175217 6.967836 0.000083 0.132253 0.020015
46915 3.087201 -6.172533 6.941960 -0.008363 0.107957 0.000460
46916 3.089662 -6.152914 6.938986 -0.000591 0.105984 -0.013209
46917 3.076246 -6.150764 6.924315 -0.017882 0.096858 -0.029131
46918 3.088479 -6.146751 6.966118 -0.002710 0.112643 0.001755
46919 3.107491 -6.175659 6.933115 -0.018003 0.058377 0.002997
46920 3.118149 -6.144225 6.938457 0.005245 0.062988 -0.009631
46921 3.073530 -6.122341 6.930918 -0.022249 0.085598 -0.043085
46922 3.070460 -6.106251 6.921827 -0.021736 0.081140 -0.060588
46923 3.084551 -6.131936 6.938262 -0.029297 0.064553 -0.028212
46924 3.094597 -6.134424 6.930058 -0.030435 0.044485 -0.029188
46925 3.086805 -6.114154 6.941309 -0.026918 0.058462 -0.036446
46926 3.070299 -6.084978 6.952067 -0.024607 0.081263 -0.052413
46927 3.076652 -6.104095 6.944903 -0.038816 0.056250 -0.043428
46928 3.108005 -6.097280 6.933242 -0.018893 0.026099 -0.045864
46929 3.111902 -6.085462 6.945016 -0.011793 0.029746 -0.043622
46930 3.092282 -6.064632 6.979763 -0.012004 0.066534 -0.038211
46931 3.101605 -6.057825 7.000551 -0.001861 0.070769 -0.024607
46932 3.113423 -6.063325 7.006866 -0.000943 0.057878 -0.012825
46933 3.109806 -6.046068 7.007235 0.001633 0.060608 -0.024426
46934 3.107653 -6.031446 6.983846 -0.001306 0.045510 -0.050866
46935 3.143129 -6.018021 6.994259 0.030275 0.030594 -0.040304
46936 3.125381 -6.026422 7.010392 0.009620 0.039922 -0.029231
46937 3.134992 -6.024501 7.030911 0.016840 0.041245 -0.012599
46938 3.142601 -6.004599 7.021544 0.027576 0.032208 -0.029140
46939 3.142570 -5.993895 7.042331 0.033111 0.043416 -0.020815
46940 3.139626 -5.987455 7.065073 0.034416 0.055108 -0.009360
46941 3.150193 -5.992080 7.068582 0.034739 0.041262 -0.000531
46942 3.151438 -5.982315 7.071920 0.037142 0.039492 -0.003695
46943 3.156409 -5.961456 7.071585 0.048519 0.038204 -0.015117
46944 3.147926 -5.964017 7.083302 0.037764 0.041635 -0.007771
46945 3.150230 -5.957747 7.086118 0.038791 0.036984 -0.008797
46946 3.155591 -5.960954 7.096679 0.037650 0.031126 0.002563
46947 3.153123 -5.945549 7.105491 0.042400 0.037482 -0.001251
46948 3.129913 -5.900824 7.102468 0.047757 0.062034 -0.038187
46949 3.140116 -5.915416 7.103909 0.041314 0.041846 -0.024886
46950 3.147963 -5.935338 7.111449 0.030924 0.024733 -0.004703
46951 3.134500 -5.939800 7.105635 0.011720 0.018514 -0.010488
46952 3.117690 -5.892790 7.105506 0.024285 0.042156 -0.044558
46953 3.116373 -5.890824 7.124428 0.023616 0.047931 -0.032383
46954 3.126862 -5.910447 7.127482 0.014312 0.026232 -0.014841
46955 3.134080 -5.891800 7.111614 0.023245 0.012103 -0.035358
46956 3.121459 -5.885643 7.125774 0.015923 0.023240 -0.032794
46957 3.110366 -5.859976 7.128771 0.019797 0.035685 -0.049658
46958 3.121961 -5.872787 7.130129 0.015252 0.015155 -0.037181
46959 3.133862 -5.867494 7.147337 0.025886 0.013275 -0.023978
46960 3.135247 -5.863185 7.162014 0.027756 0.015630 -0.015382
46961 3.104104 -5.818317 7.176402 0.031977 0.056178 -0.041782
46962 3.093365 -5.802683 7.180314 0.030025 0.064097 -0.051683
46963 3.125777 -5.848918 7.192866 0.021309 0.022770 -0.004309
46964 3.134804 -5.811794 7.186844 0.045496 0.022272 -0.028082
46965 3.108427 -5.782605 7.190113 0.040980 0.045538 -0.051539
46966 3.116981 -5.783992 7.227643 0.049305 0.055360 -0.020332
46967 3.113387 -5.792231 7.255981 0.042311 0.063699 0.004367
46968 3.117556 -5.792075 7.253560 0.039952 0.051329 0.003890
46969 3.130280 -5.771342 7.260182 0.058996 0.049117 0.000529
46970 3.131087 -5.750914 7.273757 0.070673 0.058360 -0.001287
46971 3.120150 -5.748035 7.281330 0.061192 0.062926 -0.000804
46972 3.141316 -5.752073 7.306291 0.074363 0.055694 0.026855
46973 3.116489 -5.727467 7.294651 0.064931 0.066562 -0.004158
46974 3.094986 -5.734110 7.324154 0.046100 0.087338 0.014874
46975 3.108462 -5.714350 7.316069 0.062136 0.074803 0.001568
46976 3.104158 -5.739126 7.353552 0.045790 0.081286 0.042732
46977 3.101372 -5.734258 7.353443 0.041907 0.077019 0.038982
46978 3.102182 -5.715796 7.368288 0.052864 0.086611 0.039470
46979 3.097821 -5.691668 7.375784 0.062191 0.097196 0.029555
46980 3.100362 -5.692039 7.409721 0.066128 0.108654 0.055945
46981 3.101637 -5.710476 7.387039 0.045019 0.076967 0.050395
46982 3.087990 -5.702194 7.388296 0.035946 0.082247 0.042233
46983 3.098089 -5.639821 7.411008 0.084519 0.111174 0.025930
46984 3.102664 -5.659281 7.407142 0.069000 0.088778 0.036000
46985 3.126903 -5.646451 7.415342 0.091824 0.076614 0.042404
46986 3.126683 -5.654397 7.417656 0.082086 0.066734 0.048805
46987 3.113551 -5.617612 7.412034 0.091043 0.080580 0.019096
46988 3.117493 -5.608334 7.438180 0.100787 0.090782 0.034636
46989 3.106954 -5.627711 7.431838 0.074201 0.076644 0.037934
46990 3.114013 -5.652025 7.414812 0.054406 0.042270 0.041599
46991 3.106489 -5.623074 7.418839 0.064407 0.055130 0.025516
46992 3.099631 -5.591358 7.440105 0.080822 0.079667 0.021036
46993 3.080064 -5.592957 7.480337 0.069862 0.108329 0.046160
46994 3.106541 -5.600324 7.484986 0.080020 0.083156 0.062372
46995 3.103770 -5.593286 7.482003 0.077597 0.078477 0.055289
46996 3.093757 -5.568056 7.497933 0.086315 0.098414 0.049699
46997 3.087507 -5.546310 7.489828 0.090070 0.099569 0.029211
46998 3.102721 -5.553658 7.480646 0.089360 0.072942 0.031402
46999 3.115104 -5.578215 7.489526 0.079184 0.051207 0.056205
47000 3.102252 -5.563584 7.515833 0.081045 0.074594 0.063749
47001 3.084840 -5.527889 7.555765 0.097326 0.118852 0.068148
47002 3.071307 -5.533631 7.594205 0.087993 0.140691 0.096450
47003 3.081600 -5.539124 7.576489 0.083380 0.112891 0.089528
47004 3.077625 -5.525475 7.560778 0.082061 0.104169 0.068689
47005 3.040165 -5.510180 7.596451 0.069745 0.149307 0.075443
47006 3.026418 -5.492975 7.606398 0.069960 0.164421 0.069040
47007 3.057935 -5.500521 7.633033 0.088450 0.149229 0.103600
47008 3.049582 -5.494160 7.649206 0.086316 0.159756 0.109830
47009 3.060581 -5.494060 7.631345 0.085938 0.134230 0.099758
47010 3.042569 -5.459642 7.634258 0.093490 0.155831 0.076973
47011 3.037528 -5.462258 7.645536 0.086584 0.157298 0.085637
47012 3.034209 -5.481649 7.628584 0.063231 0.132552 0.082793
47013 3.054966 -5.469594 7.651696 0.087060 0.131019 0.100219
47014 3.044844 -5.448923 7.669078 0.094363 0.149948 0.098816
47015 3.044571 -5.432705 7.698581 0.107858 0.167916 0.112300
47016 3.033419 -5.443326 7.705986 0.091006 0.167432 0.120646
47017 3.050665 -5.439144 7.703197 0.101458 0.148994 0.121669
47018 3.047684 -5.430023 7.690102 0.099002 0.139786 0.105722
47019 3.018869 -5.411762 7.696950 0.089519 0.163735 0.091922
47020 3.012585 -5.428739 7.678258 0.065739 0.141426 0.085303
47021 3.030367 -5.439743 7.693730 0.070309 0.126644 0.108986
47022 3.008517 -5.422957 7.689023 0.062036 0.138701 0.089322
47023 2.979762 -5.416275 7.708123 0.047713 0.164852 0.091504
47024 2.974365 -5.398283 7.683362 0.047276 0.154433 0.060867
47025 2.970387 -5.424954 7.664460 0.018384 0.126346 0.060092
47026 2.971965 -5.426862 7.660145 0.013757 0.114791 0.058411
47027 2.977174 -5.401639 7.690887 0.038127 0.134033 0.069766
47028 2.954643 -5.368230 7.710136 0.046659 0.168557 0.059197
47029 2.956403 -5.389253 7.699015 0.027473 0.144225 0.062965
47030 2.955744 -5.399112 7.687666 0.014245 0.126458 0.059575
47031 2.947242 -5.382330 7.650938 0.008374 0.110971 0.019346
47032 2.944251 -5.355936 7.669311 0.025314 0.129209 0.018098
47033 2.946419 -5.360300 7.671270 0.020762 0.119981 0.022793
47034 2.940109 -5.374374 7.691950 0.007819 0.123193 0.044747
47035 2.937763 -5.381567 7.707029 0.001271 0.123515 0.059776
47036 2.921590 -5.345153 7.700780 0.010690 0.140806 0.029961
47037 2.912873 -5.347849 7.672618 -0.007154 0.122080 0.007019
47038 2.900839 -5.357021 7.674736 -0.024753 0.120556 0.010110
47039 2.897827 -5.369613 7.672571 -0.039668 0.109100 0.014501
47040 2.906541 -5.343143 7.695477 -0.013899 0.122562 0.020479
47041 2.877530 -5.327861 7.702197 -0.024816 0.146504 0.008527
47042 2.904430 -5.322528 7.697822 -0.007536 0.122122 0.010490
47043 2.909329 -5.335764 7.702384 -0.016153 0.109152 0.022862
47044 2.910599 -5.317010 7.681152 -0.010650 0.098238 -0.003503
47045 2.847583 -5.297054 7.682357 -0.042710 0.144475 -0.032628
47046 2.847428 -5.310405 7.707766 -0.050213 0.147158 -0.005486
47047 2.872660 -5.337771 7.707747 -0.056341 0.111700 0.017181
47048 2.880283 -5.339230 7.726300 -0.051940 0.110821 0.034832
47049 2.868127 -5.318485 7.719739 -0.050835 0.118643 0.014756
47050 2.843514 -5.283057 7.719408 -0.046317 0.145453 -0.012209
47051 2.845381 -5.259656 7.711505 -0.034523 0.144555 -0.030478
47052 2.852928 -5.293388 7.710085 -0.057534 0.117305 -0.010914
47053 2.871406 -5.285469 7.725238 -0.040160 0.111467 0.002318
47054 2.852726 -5.249895 7.756706 -0.024279 0.152496 0.002096
47055 2.853928 -5.246761 7.768579 -0.022587 0.154248 0.010156
47056 2.885083 -5.253955 7.756154 -0.013888 0.116896 0.013822
47057 2.877656 -5.280094 7.737482 -0.045557 0.093509 0.011080
47058 2.859648 -5.256059 7.734502 -0.045405 0.109189 -0.009649
47059 2.845949 -5.221100 7.726578 -0.035383 0.123919 -0.038818
47060 2.861528 -5.245799 7.714146 -0.049465 0.089166 -0.030526
47061 2.861338 -5.261142 7.738033 -0.058960 0.090305 -0.003509
47062 2.874015 -5.234671 7.747387 -0.033679 0.093224 -0.006496
47063 2.842834 -5.200240 7.742859 -0.034717 0.121743 -0.037928
47064 2.835978 -5.196579 7.765324 -0.035494 0.134940 -0.024195
47065 2.868076 -5.205200 7.794442 -0.017571 0.119940 0.013148
47066 2.875530 -5.216306 7.802858 -0.022684 0.108857 0.028043
47067 2.851039 -5.195622 7.808430 -0.026704 0.132230 0.014053
47068 2.831356 -5.177959 7.818266 -0.028697 0.153488 0.006521
47069 2.853971 -5.186967 7.846917 -0.017509 0.144345 0.040869
47070 2.880330 -5.187969 7.826502 -0.009545 0.108428 0.033279
47071 2.838864 -5.176929 7.819206 -0.034590 0.132019 0.009196
47072 2.826452 -5.146465 7.828144 -0.022671 0.153621 -0.003595
47073 2.825402 -5.149075 7.838163 -0.026787 0.153220 0.005486
47074 2.855641 -5.170740 7.851574 -0.023343 0.124574 0.036779
47075 2.833315 -5.173747 7.843815 -0.045976 0.128477 0.025563
47076 2.829918 -5.132649 7.866385 -0.017322 0.156470 0.020751
47077 2.824662 -5.136612 7.873217 -0.025963 0.156664 0.026769
47078 2.834172 -5.150462 7.906748 -0.026005 0.157147 0.063646
47079 2.844847 -5.150263 7.884191 -0.028146 0.131539 0.048900
47080 2.830553 -5.124874 7.890429 -0.021566 0.150849 0.036252
47081 2.837619 -5.093781 7.888873 0.001128 0.153463 0.020843
47082 2.843306 -5.087712 7.895270 0.006811 0.150105 0.024537
47083 2.861667 -5.120354 7.907811 -0.005877 0.124314 0.057259
47084 2.869761 -5.090208 7.921531 0.020553 0.134336 0.054856
47085 2.833677 -5.090080 7.935084 -0.003559 0.161717 0.054862
47086 2.835788 -5.094510 7.949116 -0.005857 0.160832 0.069088
47087 2.850410 -5.090601 7.944492 0.001607 0.144212 0.067817
47088 2.855317 -5.081562 7.944666 0.007630 0.139463 0.064779
47089 2.829091 -5.057829 7.917820 -0.002120 0.148332 0.023175
47090 2.836131 -5.038996 7.941476 0.017803 0.159647 0.034437
47091 2.843922 -5.055329 7.934855 0.005538 0.137793 0.040076
47092 2.858328 -5.079092 7.943989 -0.004110 0.117023 0.064123
47093 2.823725 -5.042629 7.941466 -0.004131 0.150955 0.032872
47094 2.840928 -5.030456 7.918545 0.006481 0.126461 0.013407
47095 2.816297 -5.028517 7.925794 -0.009900 0.143512 0.010924
47096 2.825918 -5.047865 7.906901 -0.026296 0.112710 0.008752
47097 2.833330 -5.047142 7.951477 -0.014161 0.127203 0.046374
47098 2.822310 -5.015642 7.953127 -0.001570 0.144614 0.028178
47099 2.808104 -5.016385 7.965434 -0.012151 0.156289 0.034274
47100 2.812172 -5.030231 7.919609 -0.034578 0.117317 0.005909
47101 2.822552 -5.034536 7.891561 -0.041659 0.087673 -0.011266
47102 2.828230 -5.036311 7.903003 -0.040557 0.084247 0.000559
47103 2.822614 -4.983539 7.893232 -0.011582 0.101443 -0.036109
47104 2.830052 -4.994545 7.946031 -0.006472 0.115064 0.014280
47105 2.828552 -5.020182 7.940393 -0.031544 0.096898 0.022521
47106 2.861480 -5.013494 7.926138 -0.013233 0.064048 0.017429
47107 2.834834 -4.974820 7.919366 -0.007225 0.091514 -0.015748
47108 2.810187 -4.987600 7.953043 -0.028288 0.117201 0.010649
47109 2.841700 -4.986873 7.921819 -0.019361 0.073476 -0.005493
47110 2.839705 -4.980632 7.912633 -0.022197 0.067938 -0.016658
47111 2.812540 -4.978404 7.914676 -0.041121 0.084869 -0.024193
47112 2.811250 -4.974232 7.919321 -0.042093 0.085554 -0.022929
47113 2.781817 -4.966609 7.919552 -0.059072 0.105547 -0.035343
47114 2.811223 -4.971468 7.899095 -0.053242 0.066795 -0.040652
47115 2.802208 -4.977265 7.899732 -0.067249 0.066699 -0.039860
47116 2.798656 -4.946457 7.893279 -0.052408 0.074981 -0.061786
47117 2.781632 -4.937896 7.905703 -0.058165 0.093286 -0.061121
47118 2.788309 -4.945821 7.912042 -0.062592 0.083955 -0.049976
47119 2.826581 -4.969412 7.902478 -0.063091 0.036455 -0.034420
47120 2.812140 -4.943719 7.901543 -0.057463 0.053182 -0.052467
47121 2.799571 -4.905545 7.890130 -0.043872 0.068152 -0.084732
47122 2.810311 -4.929147 7.881307 -0.061359 0.041037 -0.076782
47123 2.836576 -4.926114 7.879117 -0.047811 0.017601 -0.072315
47124 2.857979 -4.905677 7.892647 -0.020234 0.013651 -0.065304
47125 2.832780 -4.893193 7.913725 -0.025996 0.043921 -0.061937
47126 2.851001 -4.884093 7.936500 -0.006696 0.042055 -0.042606
47127 2.858519 -4.913188 7.941868 -0.026826 0.021966 -0.021399
47128 2.867344 -4.886975 7.946827 -0.004931 0.024615 -0.027900
47129 2.851693 -4.861240 7.953037 0.002032 0.045326 -0.040362
47130 2.850661 -4.838514 7.962397 0.016695 0.055668 -0.044396
47131 2.858325 -4.841153 7.970051 0.017110 0.047855 -0.034548
47132 2.855648 -4.853930 7.996572 0.008216 0.052841 -0.007328
47133 2.859543 -4.859956 7.991749 0.000936 0.039288 -0.007073
47134 2.822412 -4.849209 7.986576 -0.018874 0.062983 -0.027584
47135 2.832112 -4.825624 7.997899 0.003763 0.066301 -0.027199
47136 2.834068 -4.841164 7.992448 -0.011809 0.049444 -0.023302
47137 2.830635 -4.862999 7.971699 -0.038920 0.025958 -0.030392
47138 2.813784 -4.827344 7.982962 -0.023136 0.053717 -0.043838
47139 2.812803 -4.787451 8.005038 0.008127 0.077047 -0.045823
47140 2.814421 -4.831913 8.014068 -0.025999 0.055422 -0.015909
47141 2.839542 -4.820452 8.015784 -0.005093 0.036420 -0.012773
47142 2.816426 -4.814551 8.014394 -0.018636 0.048964 -0.023588
47143 2.787525 -4.795092 8.022063 -0.022959 0.076331 -0.035351
47144 2.776442 -4.795496 8.017763 -0.034355 0.075707 -0.041876
47145 2.776249 -4.804860 8.011082 -0.046505 0.062079 -0.042768
47146 2.787890 -4.797374 8.006857 -0.038294 0.048121 -0.046491
47147 2.763374 -4.779782 8.000515 -0.044646 0.064011 -0.067478
47148 2.754521 -4.773551 8.020000 -0.043933 0.076751 -0.057092
47149 2.744880 -4.793902 8.013090 -0.070318 0.065078 -0.055573
47150 2.767986 -4.787851 8.008275 -0.056495 0.041471 -0.055752
47151 2.732716 -4.775207 7.997350 -0.074128 0.060998 -0.081172
47152 2.755941 -4.746024 7.976413 -0.046547 0.038858 -0.105888
47153 2.727358 -4.762173 7.977647 -0.079217 0.047543 -0.105288
47154 2.730738 -4.770661 7.983102 -0.085929 0.037762 -0.095677
47155 2.733469 -4.753798 8.014786 -0.067412 0.052440 -0.076985
47156 2.726680 -4.729276 8.000181 -0.060028 0.053616 -0.102903
47157 2.723184 -4.734090 7.982048 -0.073872 0.038750 -0.116532
47158 2.716345 -4.747194 7.973199 -0.093949 0.027369 -0.119469
47159 2.734432 -4.757782 7.940697 -0.103260 -0.013723 -0.135994
47160 2.700567 -4.736258 7.942274 -0.110397 0.015310 -0.154916
47161 2.706342 -4.730609 7.962444 -0.101766 0.016869 -0.139338
47162 2.736274 -4.722478 7.947903 -0.085321 -0.016186 -0.146710
47163 2.731475 -4.723423 7.956678 -0.090947 -0.015226 -0.140424
47164 2.719258 -4.737978 7.966078 -0.111100 -0.014000 -0.129194
47165 2.683134 -4.680957 7.967952 -0.092150 0.031434 -0.165463
47166 2.709521 -4.681297 7.981984 -0.077591 0.011631 -0.146118
47167 2.714397 -4.717968 7.976360 -0.108801 -0.017005 -0.131846
47168 2.709709 -4.682489 7.978086 -0.087915 -0.004678 -0.148796
47169 2.709250 -4.677196 8.002092 -0.082617 0.002874 -0.131561
47170 2.677902 -4.652010 8.014931 -0.082435 0.036704 -0.141895
47171 2.677587 -4.664829 8.003819 -0.099740 0.019071 -0.145129
47172 2.670534 -4.674626 7.996191 -0.117725 0.009579 -0.148868
47173 2.666756 -4.659894 7.999731 -0.111987 0.012867 -0.154044
47174 2.662588 -4.636489 8.020490 -0.095475 0.028849 -0.149085
47175 2.657349 -4.612113 8.028778 -0.081888 0.039690 -0.155238
47176 2.662509 -4.643604 8.061912 -0.099635 0.031677 -0.111253
47177 2.645874 -4.656427 8.074553 -0.120692 0.037895 -0.099382
47178 2.649127 -4.596830 8.051424 -0.082494 0.041036 -0.145926
47179 2.629857 -4.587152 8.059687 -0.088464 0.056122 -0.149037
47180 2.639877 -4.606790 8.080916 -0.097196 0.043148 -0.119222
47181 2.641912 -4.588668 8.106837 -0.080032 0.053785 -0.105491
47182 2.644630 -4.577472 8.116477 -0.071733 0.053196 -0.101905
47183 2.618932 -4.557649 8.132717 -0.071345 0.081122 -0.104802
47184 2.615605 -4.557016 8.135132 -0.076603 0.077216 -0.103981
47185 2.606702 -4.560524 8.117697 -0.093289 0.066012 -0.119438
47186 2.609716 -4.538649 8.128875 -0.076218 0.070102 -0.119404
47187 2.617745 -4.540126 8.160781 -0.069621 0.070517 -0.089660
47188 2.630882 -4.518634 8.164670 -0.048930 0.062675 -0.092692
47189 2.628346 -4.525325 8.162906 -0.060770 0.052748 -0.091751
47190 2.634199 -4.526419 8.170489 -0.060919 0.043353 -0.083223
47191 2.621768 -4.503325 8.193980 -0.048521 0.065091 -0.077580
47192 2.615458 -4.486469 8.218702 -0.037307 0.080251 -0.066262
47193 2.610893 -4.485490 8.195992 -0.049477 0.064872 -0.087074
47194 2.615400 -4.498710 8.213533 -0.057761 0.055739 -0.064915
47195 2.618938 -4.481934 8.208301 -0.048437 0.048570 -0.076046
47196 2.612300 -4.466596 8.247554 -0.034926 0.070143 -0.051752
47197 2.596572 -4.449298 8.218684 -0.041688 0.067241 -0.088367
47198 2.600043 -4.460220 8.238261 -0.048225 0.060856 -0.065826
47199 2.602574 -4.453231 8.237090 -0.046246 0.052417 -0.069284
47200 2.594888 -4.417405 8.258816 -0.021534 0.074377 -0.069312
47201 2.581698 -4.410680 8.254506 -0.029168 0.076408 -0.079583
47202 2.604715 -4.411612 8.268548 -0.018392 0.055735 -0.060911
47203 2.601825 -4.409896 8.248334 -0.028458 0.040578 -0.079592
47204 2.585117 -4.407934 8.285616 -0.031590 0.063087 -0.053370
47205 2.579335 -4.385365 8.271744 -0.025011 0.061308 -0.076892
47206 2.582475 -4.361763 8.288031 -0.005075 0.066827 -0.072808
47207 2.580723 -4.405402 8.269313 -0.050317 0.033136 -0.069490
47208 2.579322 -4.381128 8.268185 -0.036855 0.034317 -0.081749
47209 2.563540 -4.358580 8.276423 -0.030124 0.050389 -0.089108
47210 2.543836 -4.329978 8.277776 -0.022250 0.069015 -0.106061
47211 2.548388 -4.321675 8.306848 -0.010672 0.072882 -0.083708
47212 2.553855 -4.344289 8.313863 -0.029053 0.053636 -0.066092
47213 2.563121 -4.325902 8.316679 -0.013525 0.045442 -0.069368
47214 2.542721 -4.313605 8.335114 -0.014728 0.065784 -0.064519
47215 2.566852 -4.296762 8.377400 0.017462 0.063038 -0.029345
47216 2.539202 -4.318727 8.379097 -0.019465 0.067786 -0.025465
47217 2.548305 -4.310711 8.368711 -0.015562 0.049734 -0.035433
47218 2.529527 -4.278733 8.391358 0.001030 0.077966 -0.035115
47219 2.489682 -4.253979 8.430355 0.004866 0.127975 -0.023101
47220 2.486870 -4.272681 8.434774 -0.015505 0.115444 -0.011700
47221 2.494281 -4.270390 8.429110 -0.015943 0.098320 -0.015510
47222 2.461355 -4.269115 8.426455 -0.037822 0.114799 -0.026953
47223 2.469834 -4.252148 8.455667 -0.017050 0.118261 -0.006957
47224 2.464430 -4.226229 8.461216 -0.002341 0.125388 -0.014835
47225 2.471572 -4.232473 8.469253 -0.006517 0.111486 -0.003207
47226 2.451537 -4.216878 8.484859 -0.005217 0.131163 -0.001704
47227 2.460372 -4.216745 8.513300 0.001638 0.127327 0.025171
47228 2.449619 -4.199076 8.512339 0.005226 0.132964 0.013988
47229 2.455804 -4.205999 8.528953 0.002184 0.123031 0.033059
47230 2.443242 -4.201056 8.538408 -0.002681 0.130117 0.035934
47231 2.425451 -4.178990 8.562813 0.007287 0.154472 0.042999
47232 2.429713 -4.155808 8.577190 0.027171 0.156464 0.046690
47233 2.416591 -4.161958 8.583625 0.012179 0.158244 0.051672
47234 2.417415 -4.162063 8.593026 0.010218 0.152048 0.060223
47235 2.414700 -4.143929 8.605931 0.022291 0.157438 0.063073
47236 2.386830 -4.129017 8.631582 0.021915 0.187371 0.071933
47237 2.398298 -4.124329 8.617907 0.023817 0.164551 0.061190
47238 2.401917 -4.124085 8.624931 0.022897 0.155443 0.068267
47239 2.399193 -4.119040 8.623442 0.020685 0.149491 0.064285
47240 2.394650 -4.091919 8.643468 0.041235 0.162668 0.069149
47241 2.380278 -4.079574 8.655163 0.042515 0.174767 0.070602
47242 2.370103 -4.091476 8.637537 0.018677 0.161864 0.057910
47243 2.370399 -4.090920 8.648362 0.017549 0.157207 0.067326
47244 2.330028 -4.095515 8.647846 -0.011253 0.179263 0.058782
47245 2.337430 -4.058990 8.648114 0.018184 0.178073 0.045650
47246 2.314565 -4.056347 8.659836 0.007621 0.193870 0.049182
47247 2.326740 -4.065642 8.665774 0.003138 0.173895 0.061488
47248 2.331961 -4.059237 8.690060 0.012705 0.173102 0.081466
47249 2.301543 -4.023407 8.708775 0.027403 0.210727 0.075387
47250 2.297839 -4.005379 8.742890 0.044957 0.225924 0.096942
47251 2.309104 -4.004659 8.736949 0.044978 0.205590 0.094466
47252 2.303701 -4.029052 8.732434 0.016738 0.190295 0.099525
47253 2.311782 -4.007858 8.734635 0.034369 0.183715 0.094821
47254 2.282672 -3.980425 8.745892 0.041302 0.214307 0.086275
47255 2.262163 -3.992445 8.771976 0.023512 0.229178 0.109245
47256 2.301592 -3.990401 8.773208 0.040545 0.189144 0.119390
47257 2.298461 -3.990848 8.775481 0.034727 0.184165 0.120975
47258 2.276849 -3.955216 8.775509 0.049602 0.207073 0.101190
47259 2.283155 -3.965363 8.765783 0.037209 0.185971 0.098557
47260 2.299897 -3.963754 8.769938 0.043410 0.166081 0.105798
47261 2.291201 -3.944228 8.796854 0.058066 0.183239 0.119487
47262 2.287853 -3.935808 8.813371 0.063274 0.187859 0.129923
47263 2.295074 -3.909767 8.850549 0.094015 0.198205 0.153927
47264 2.285285 -3.896215 8.858578 0.098392 0.206607 0.153284
47265 2.272528 -3.925199 8.846118 0.060317 0.194048 0.151225
47266 2.286077 -3.910723 8.856137 0.077462 0.184072 0.157619
47267 2.264588 -3.883468 8.877143 0.091128 0.212630 0.160067
47268 2.261912 -3.873247 8.901968 0.100588 0.220985 0.177361
47269 2.258414 -3.880442 8.913628 0.091803 0.218590 0.189919
47270 2.263637 -3.898082 8.913793 0.075331 0.200493 0.198641
47271 2.247164 -3.879276 8.903614 0.076671 0.209775 0.178296
47272 2.249399 -3.834914 8.907495 0.111925 0.217982 0.164575
47273 2.236348 -3.873540 8.870774 0.059654 0.193926 0.144722
47274 2.228465 -3.868053 8.873428 0.057193 0.196742 0.143141
47275 2.232555 -3.851203 8.893603 0.074491 0.200327 0.155363
47276 2.207007 -3.821994 8.929433 0.092320 0.239732 0.169474
47277 2.190839 -3.843212 8.956735 0.069880 0.249919 0.198482
47278 2.185218 -3.831604 8.926251 0.065347 0.240568 0.165702
47279 2.187221 -3.844313 8.912166 0.048138 0.222682 0.158932
47280 2.178527 -3.810126 8.929403 0.073261 0.242638 0.158707
47281 2.165570 -3.822884 8.932353 0.053529 0.244205 0.163507
47282 2.180809 -3.806216 8.933892 0.070970 0.232154 0.162007
47283 2.175574 -3.821574 8.939595 0.053058 0.227626 0.172081
47284 2.167486 -3.814328 8.935678 0.050496 0.230394 0.163976
47285 2.167131 -3.786160 8.974929 0.080421 0.250150 0.187761
47286 2.174800 -3.787428 8.954255 0.073390 0.230159 0.171856
47287 2.188981 -3.808043 8.949085 0.057007 0.203784 0.178858
47288 2.187605 -3.794797 8.937902 0.060679 0.200518 0.163499
47289 2.169651 -3.777930 8.954003 0.066897 0.223410 0.167095
47290 2.185718 -3.755801 8.948815 0.087664 0.210816 0.157681
47291 2.201714 -3.761153 8.951918 0.086988 0.192164 0.166404
47292 2.223419 -3.775638 8.968880 0.084775 0.170697 0.192356
47293 2.211823 -3.762115 8.961822 0.085272 0.178582 0.178180
47294 2.227474 -3.744045 8.950065 0.100276 0.162885 0.164415
47295 2.236382 -3.731720 8.942303 0.108857 0.152945 0.154870
47296 2.260530 -3.746618 8.959929 0.107325 0.129867 0.182111
47297 2.255484 -3.738248 8.932200 0.100985 0.123088 0.153058
47298 2.266717 -3.719948 8.938088 0.119044 0.118384 0.153898
47299 2.259321 -3.700339 8.926832 0.125611 0.123665 0.134621
47300 2.297042 -3.706403 8.923056 0.132291 0.084237 0.142467
47301 2.285729 -3.731175 8.910419 0.098648 0.077945 0.138230
47302 2.276330 -3.727000 8.917397 0.095725 0.087021 0.140722
47303 2.259181 -3.707566 8.925360 0.102832 0.108232 0.136406
47304 2.252508 -3.703486 8.933681 0.101710 0.115395 0.140776
47305 2.267462 -3.710575 8.941880 0.100349 0.100218 0.154380
47306 2.240468 -3.715191 8.925464 0.076432 0.113119 0.135290
47307 2.237095 -3.673591 8.927037 0.107404 0.127671 0.119981
47308 2.238075 -3.666955 8.953321 0.116365 0.135949 0.141221
47309 2.243958 -3.672484 8.945545 0.108377 0.123712 0.137835
47310 2.269405 -3.691715 8.965941 0.104463 0.099870 0.169418
47311 2.268592 -3.671004 8.976016 0.120803 0.108641 0.170377
47312 2.250507 -3.655409 8.987330 0.125670 0.131197 0.170407
47313 2.247770 -3.668815 8.980842 0.107689 0.124212 0.169167
47314 2.254054 -3.679254 8.970222 0.095063 0.108959 0.165171
47315 2.265626 -3.653425 8.962373 0.116835 0.102325 0.151040
47316 2.291711 -3.618665 8.989120 0.161211 0.098629 0.167862
47317 2.281746 -3.626615 9.008798 0.151815 0.109472 0.186271
47318 2.299970 -3.650943 9.027753 0.139854 0.090626 0.216787
47319 2.278527 -3.655260 9.031005 0.124295 0.107144 0.216434
47320 2.273309 -3.632563 9.051220 0.143682 0.124385 0.224786
47321 2.274518 -3.606026 9.042524 0.161728 0.126843 0.207289
47322 2.271470 -3.632869 9.026778 0.129878 0.113356 0.202708
47323 2.291402 -3.630009 9.035545 0.139810 0.097934 0.214170
47324 2.297050 -3.623329 9.032943 0.144288 0.092463 0.210678
47325 2.263355 -3.600565 9.058496 0.153427 0.136845 0.217240
47326 2.292076 -3.596108 9.053125 0.165189 0.109642 0.217463
47327 2.292662 -3.604911 9.039042 0.151298 0.099509 0.208353
47328 2.303318 -3.606790 9.064617 0.157868 0.097219 0.234527
47329 2.293231 -3.596805 9.078672 0.163248 0.112577 0.241098
47330 2.274189 -3.576021 9.047882 0.163014 0.123053 0.201306
47331 2.285006 -3.584846 9.041285 0.155519 0.106978 0.201268
47332 2.288016 -3.587471 9.041830 0.152231 0.102131 0.203498
47333 2.276713 -3.590537 9.052090 0.145042 0.113260 0.211290
47334 2.270032 -3.576124 9.057247 0.154139 0.124129 0.209009
47335 2.244035 -3.576992 9.027047 0.132668 0.134492 0.176254
47336 2.247275 -3.594430 8.996507 0.108672 0.113878 0.156166
47337 2.260128 -3.590183 8.975361 0.110153 0.094837 0.138605
47338 2.256828 -3.561081 8.960968 0.128645 0.100334 0.114060
47339 2.239635 -3.557977 8.968653 0.124416 0.117770 0.115860
47340 2.238314 -3.579099 8.973454 0.104743 0.112780 0.127800
47341 2.270212 -3.594606 8.973780 0.102571 0.078733 0.141298
47342 2.256064 -3.594109 8.976772 0.096417 0.091141 0.140552
47343 2.248790 -3.578552 8.965272 0.102387 0.096857 0.122760
47344 2.266488 -3.570784 8.979811 0.118394 0.087326 0.137054
47345 2.282728 -3.590095 8.960307 0.101430 0.059124 0.130511
47346 2.280209 -3.605626 8.959595 0.084967 0.055138 0.135099
47347 2.255462 -3.580441 8.964580 0.096895 0.085291 0.124496
47348 2.248975 -3.568434 8.956660 0.101362 0.090299 0.111436
47349 2.262310 -3.621753 8.937947 0.053631 0.054570 0.117558
47350 2.274087 -3.606788 8.897480 0.059748 0.033258 0.078345
47351 2.254303 -3.600549 8.915274 0.060477 0.057875 0.087464
47352 2.230819 -3.582305 8.918069 0.066523 0.083882 0.077790
47353 2.230295 -3.591474 8.910398 0.054883 0.077710 0.074197
47354 2.240113 -3.583363 8.865485 0.052986 0.054336 0.033073
47355 2.245101 -3.592963 8.857564 0.043126 0.043232 0.030678
47356 2.203867 -3.584949 8.861247 0.033486 0.082248 0.021515
47357 2.174404 -3.572785 8.860357 0.031111 0.110595 0.009418
47358 2.178468 -3.587324 8.863429 0.019670 0.102494 0.018524
47359 2.196957 -3.615403 8.873883 0.003677 0.080285 0.042614
47360 2.167464 -3.593815 8.882096 0.012195 0.114451 0.035223
47361 2.143502 -3.580044 8.880334 0.013452 0.137986 0.023033
47362 2.149936 -3.592649 8.854207 -0.003180 0.118195 0.005685
47363 2.171234 -3.616377 8.850832 -0.017858 0.089765 0.016344
47364 2.143983 -3.610149 8.836898 -0.027773 0.109711 -0.004766
47365 2.114793 -3.578477 8.842628 -0.010713 0.145595 -0.018022
47366 2.126214 -3.567823 8.847828 0.003490 0.138755 -0.014627
47367 2.133778 -3.596922 8.816466 -0.028622 0.111443 -0.030359
47368 2.133318 -3.612359 8.811394 -0.044794 0.104224 -0.029320
47369 2.134928 -3.594532 8.800260 -0.032298 0.102569 -0.045545
47370 2.123742 -3.599830 8.783437 -0.046764 0.103790 -0.061298
47371 2.122402 -3.615906 8.785226 -0.062184 0.099567 -0.054058
47372 2.133184 -3.610059 8.767749 -0.058700 0.084048 -0.069474
47373 2.135607 -3.588659 8.768033 -0.039950 0.086316 -0.076538
47374 2.150740 -3.569529 8.753519 -0.022120 0.071576 -0.093181
47375 2.164873 -3.581830 8.751762 -0.029298 0.053150 -0.086987
47376 2.168914 -3.589860 8.755111 -0.035136 0.046563 -0.080081
47377 2.187469 -3.589455 8.770923 -0.024691 0.033677 -0.061726
47378 2.176426 -3.581850 8.791969 -0.017606 0.050846 -0.048075
47379 2.174942 -3.555338 8.807252 0.008331 0.062815 -0.044369
47380 2.182406 -3.565315 8.820853 0.004745 0.055587 -0.026719
47381 2.191024 -3.591461 8.813842 -0.018240 0.036104 -0.021463
47382 2.201308 -3.576926 8.819717 -0.001055 0.030798 -0.019145
47383 2.193948 -3.573249 8.807105 -0.004997 0.031869 -0.033541
47384 2.189619 -3.567620 8.810130 -0.001876 0.035680 -0.033857
47385 2.194993 -3.570171 8.800468 -0.005972 0.024331 -0.040407
47386 2.188570 -3.581041 8.804599 -0.017982 0.026102 -0.034152
47387 2.183122 -3.531988 8.826813 0.028499 0.049340 -0.033293
47388 2.187114 -3.550863 8.837811 0.014966 0.041698 -0.015537
47389 2.208987 -3.565584 8.831965 0.007207 0.013363 -0.010454
47390 2.208340 -3.576722 8.817870 -0.007873 0.003813 -0.019253
47391 2.195223 -3.559196 8.825031 0.003680 0.020376 -0.022161
47392 2.169397 -3.541405 8.793981 0.000787 0.035338 -0.062538
47393 2.168533 -3.569620 8.766186 -0.033423 0.016720 -0.077526
47394 2.195923 -3.563394 8.774135 -0.017199 -0.006316 -0.066430
47395 2.173245 -3.567566 8.775315 -0.029988 0.011049 -0.068962
47396 2.152632 -3.547962 8.779834 -0.019883 0.033730 -0.076684
47397 2.148918 -3.520482 8.789503 0.004679 0.045018 -0.078785
47398 2.170490 -3.553210 8.759832 -0.026312 0.004790 -0.088817
47399 2.154353 -3.553300 8.772605 -0.030212 0.021118 -0.080873
47400 2.108903 -3.554055 8.773636 -0.048314 0.060165 -0.089888
47401 2.132725 -3.536420 8.783347 -0.022954 0.044068 -0.082158
47402 2.133668 -3.543360 8.793435 -0.027477 0.042604 -0.070297
47403 2.147703 -3.558177 8.807458 -0.033773 0.028429 -0.049082
47404 2.140135 -3.538712 8.806195 -0.020977 0.037621 -0.058984
47405 2.129396 -3.533966 8.777508 -0.030108 0.037120 -0.089056
47406 2.131900 -3.531908 8.762143 -0.033435 0.028235 -0.103140
47407 2.142531 -3.544813 8.762569 -0.043022 0.013532 -0.095703
47408 2.129700 -3.561868 8.758481 -0.066035 0.017599 -0.096113
47409 2.136082 -3.541912 8.801232 -0.036238 0.028921 -0.063217
47410 2.134345 -3.499967 8.796016 -0.002734 0.037481 -0.083488
47411 2.162773 -3.524529 8.809390 -0.013626 0.007821 -0.056151
47412 2.146392 -3.554446 8.806084 -0.049196 0.012510 -0.052011
47413 2.168547 -3.513773 8.820381 -0.003239 0.005100 -0.048792
47414 2.143597 -3.505331 8.807150 -0.010008 0.023958 -0.069386
47415 2.155241 -3.484508 8.822026 0.014566 0.021363 -0.060812
47416 2.164362 -3.514233 8.825089 -0.010570 0.004740 -0.045299
47417 2.177275 -3.500892 8.819493 0.001992 -0.007495 -0.052292
47418 2.171099 -3.495533 8.790344 -0.005589 -0.011853 -0.082011
47419 2.158641 -3.484434 8.785392 -0.003407 -0.001355 -0.093264
47420 2.160298 -3.501100 8.757000 -0.028004 -0.017959 -0.112652
47421 2.163586 -3.508617 8.776730 -0.030682 -0.018516 -0.091350
47422 2.157335 -3.485874 8.793921 -0.010050 -0.003845 -0.085312
47423 2.144541 -3.464930 8.816496 0.008452 0.017999 -0.075185
47424 2.144166 -3.475504 8.826102 -0.000979 0.016800 -0.062764
47425 2.184742 -3.479383 8.819282 0.004538 -0.025961 -0.058557
47426 2.172206 -3.489559 8.833435 -0.007205 -0.014616 -0.044868
47427 2.157812 -3.469658 8.865632 0.012427 0.011403 -0.025949
47428 2.168370 -3.455699 8.871099 0.027563 0.004200 -0.023618
47429 2.200179 -3.472142 8.860443 0.017772 -0.034762 -0.020383
47430 2.207990 -3.484442 8.849749 0.003818 -0.050679 -0.023992
47431 2.196504 -3.439963 8.867974 0.042751 -0.026390 -0.025816
47432 2.188592 -3.453189 8.864342 0.024809 -0.025868 -0.026156
47433 2.171936 -3.450145 8.840191 0.013067 -0.019951 -0.052854
47434 2.217389 -3.457885 8.849767 0.020941 -0.063073 -0.031384
47435 2.213588 -3.436948 8.886138 0.045999 -0.045867 -0.006606
47436 2.193334 -3.429180 8.879453 0.042276 -0.029894 -0.019897
47437 2.174873 -3.433009 8.898151 0.035494 -0.010229 -0.005607
47438 2.171278 -3.448084 8.872182 0.011181 -0.020975 -0.024668
47439 2.158118 -3.455914 8.867576 -0.004125 -0.014654 -0.028987
47440 2.157506 -3.412823 8.862263 0.030621 -0.008278 -0.049173
47441 2.138324 -3.403583 8.858728 0.029339 0.007985 -0.059855
47442 2.163934 -3.416425 8.875442 0.027614 -0.015475 -0.034495
47443 2.157016 -3.455022 8.877796 -0.011449 -0.019445 -0.020275
47444 2.136271 -3.411552 8.864692 0.015190 0.002923 -0.052051
47445 2.102570 -3.390540 8.874142 0.023535 0.039598 -0.058217
47446 2.122726 -3.396149 8.875086 0.022290 0.017518 -0.050959
47447 2.132071 -3.433502 8.852872 -0.017560 -0.008370 -0.056020
47448 2.151683 -3.397183 8.881344 0.026665 -0.012232 -0.038544
47449 2.116996 -3.392485 8.881184 0.017252 0.018689 -0.047913
47450 2.113307 -3.380597 8.899019 0.029069 0.027713 -0.036627
47451 2.138020 -3.413680 8.910124 0.006855 -0.001658 -0.009532
47452 2.149930 -3.433263 8.882380 -0.017811 -0.027793 -0.025371
47453 2.126493 -3.391832 8.867460 0.005964 -0.004059 -0.058554
47454 2.127832 -3.373308 8.880980 0.024188 0.000277 -0.052400
47455 2.125530 -3.387127 8.890514 0.010759 -0.000323 -0.039389
47456 2.142701 -3.397334 8.917509 0.011159 -0.012838 -0.007479
47457 2.148241 -3.373537 8.938071 0.037560 -0.009170 0.004200
47458 2.122674 -3.328521 8.963713 0.075321 0.029327 0.006401
47459 2.103430 -3.345988 9.007026 0.063150 0.053832 0.047831
47460 2.131684 -3.348286 8.993803 0.063256 0.020261 0.042719
47461 2.138146 -3.378167 9.000651 0.037245 0.007022 0.060747
47462 2.136614 -3.366023 9.001099 0.045318 0.008272 0.056628
47463 2.123755 -3.318212 9.005629 0.083978 0.028740 0.041452
47464 2.116954 -3.337922 9.022005 0.066050 0.032972 0.061784
47465 2.132518 -3.356824 9.007391 0.046774 0.007225 0.058351
47466 2.141856 -3.346254 9.010935 0.057644 -0.001353 0.059967
47467 2.123525 -3.323455 9.013688 0.071485 0.018330 0.050684
47468 2.113995 -3.298932 9.007210 0.086841 0.027464 0.034289
47469 2.132145 -3.321187 9.005239 0.068816 0.002346 0.044083
47470 2.126036 -3.333459 8.995392 0.050744 -0.000318 0.038008
47471 2.116518 -3.327760 9.012343 0.055556 0.011588 0.049513
47472 2.108865 -3.317394 9.026363 0.064294 0.021615 0.057150
47473 2.121384 -3.324934 9.005221 0.052848 -0.000836 0.043101
47474 2.108520 -3.335471 8.985332 0.031779 -0.000177 0.025782
47475 2.105027 -3.323730 8.984423 0.038902 0.001935 0.020185
47476 2.080802 -3.321304 8.980340 0.031129 0.020562 0.010456
47477 2.078847 -3.305855 8.993955 0.046355 0.025893 0.017228
47478 2.074449 -3.311484 9.008048 0.041724 0.029670 0.031137
47479 2.067730 -3.334826 8.995367 0.012787 0.024163 0.026085
47480 2.084324 -3.318551 9.010085 0.034369 0.012713 0.037545
47481 2.011744 -3.278011 9.004863 0.047892 0.083628 0.003556
47482 2.013129 -3.284081 9.013106 0.042923 0.079833 0.013509
47483 2.036274 -3.328239 9.007073 0.005079 0.043937 0.027949
47484 1.997174 -3.325549 8.996873 -0.008101 0.074231 0.009448
47485 1.998593 -3.285494 9.040886 0.039487 0.089612 0.036496
47486 1.978302 -3.286456 9.031863 0.028522 0.101766 0.024323
47487 2.018744 -3.297876 9.014791 0.022626 0.052760 0.021091
47488 2.009328 -3.306848 9.002711 0.006369 0.052371 0.011108
47489 1.985723 -3.286469 9.034242 0.025837 0.083284 0.028197
47490 1.967221 -3.267919 9.021340 0.032597 0.096477 0.006249
47491 1.940417 -3.300621 9.038504 -0.001742 0.116174 0.027508
47492 1.934708 -3.292269 9.049806 0.005807 0.122561 0.033911
47493 1.942563 -3.279716 9.086671 0.028197 0.123676 0.065199
47494 1.899334 -3.255165 9.083213 0.036576 0.163698 0.044808
47495 1.930477 -3.271203 9.070650 0.024814 0.124084 0.045216
47496 1.904538 -3.282491 9.085998 0.010054 0.146822 0.057789
47497 1.910516 -3.261123 9.072683 0.025832 0.137688 0.039656
47498 1.929752 -3.257340 9.066857 0.030889 0.115062 0.037058
47499 1.914220 -3.249319 9.066577 0.032379 0.127710 0.030945
47500 1.918979 -3.251903 9.058246 0.027002 0.117096 0.025186
47501 1.918094 -3.281448 9.038610 -0.008051 0.103789 0.016922
47502 1.906245 -3.281942 9.033290 -0.014968 0.110342 0.009789
47503 1.892505 -3.243428 9.051946 0.020342 0.132469 0.011234
47504 1.890260 -3.241119 9.072326 0.025512 0.137877 0.028782
47505 1.910809 -3.280774 9.062420 -0.010756 0.106189 0.037199
47506 1.900864 -3.253860 9.053543 0.007107 0.115391 0.018017
47507 1.883329 -3.246133 9.035596 0.002463 0.126139 -0.004641
47508 1.874030 -3.235212 9.048326 0.011650 0.138191 0.001558
47509 1.865882 -3.263867 9.029800 -0.024270 0.133667 -0.007559
47510 1.877970 -3.294436 9.038125 -0.049548 0.117433 0.012784
47511 1.851660 -3.258941 9.065023 -0.018203 0.154165 0.020350
47512 1.849547 -3.226547 9.079507 0.013133 0.164203 0.022484
47513 1.861845 -3.226105 9.099489 0.019881 0.156460 0.043272
47514 1.867561 -3.267213 9.080130 -0.024757 0.137507 0.040304
47515 1.875772 -3.231890 9.099634 0.013120 0.139617 0.048216
47516 1.869673 -3.216524 9.123130 0.030067 0.153116 0.063534
47517 1.872791 -3.206678 9.120096 0.036738 0.149690 0.058134
47518 1.879142 -3.209008 9.132963 0.037415 0.145592 0.072078
47519 1.878194 -3.204070 9.143885 0.042607 0.149027 0.080338
47520 1.868981 -3.192038 9.146901 0.049874 0.159408 0.077291
47521 1.858650 -3.184176 9.161870 0.056672 0.173296 0.086412
47522 1.877774 -3.194522 9.168510 0.051476 0.153918 0.099874
47523 1.889482 -3.201105 9.175269 0.047972 0.142484 0.110686
47524 1.890726 -3.187066 9.215890 0.070472 0.153439 0.143782
47525 1.861169 -3.174096 9.212634 0.072553 0.181609 0.130524
47526 1.887197 -3.179236 9.210870 0.071540 0.154593 0.135914
47527 1.894299 -3.172056 9.226188 0.082316 0.151803 0.149151
47528 1.894520 -3.179127 9.277125 0.088135 0.163079 0.198524
47529 1.876939 -3.151309 9.312923 0.117982 0.192741 0.218849
47530 1.904786 -3.134378 9.324237 0.141766 0.170832 0.229412
47531 1.919848 -3.128450 9.313871 0.146382 0.153604 0.221004
47532 1.916839 -3.161050 9.317475 0.114820 0.151078 0.234466
47533 1.921209 -3.144358 9.342668 0.137006 0.155027 0.253147
47534 1.907114 -3.118860 9.366788 0.163003 0.177564 0.264212
47535 1.908843 -3.122375 9.377542 0.161959 0.176940 0.275682
47536 1.922971 -3.157332 9.360806 0.126987 0.152439 0.274599
47537 1.901682 -3.118872 9.382721 0.163089 0.183205 0.277937
47538 1.877007 -3.124997 9.419221 0.161215 0.214374 0.308661
47539 1.850687 -3.115827 9.397466 0.157010 0.233955 0.280290
47540 1.872305 -3.138724 9.404329 0.142114 0.210364 0.298532
47541 1.860484 -3.138139 9.423579 0.144977 0.225875 0.313742
47542 1.871469 -3.134024 9.429657 0.152824 0.216636 0.320249
47543 1.864528 -3.126464 9.412424 0.153056 0.218876 0.300491
47544 1.873603 -3.116535 9.405581 0.162406 0.209103 0.292776
47545 1.882869 -3.147686 9.360892 0.122850 0.183254 0.263602
47546 1.897935 -3.148626 9.336751 0.118372 0.161829 0.244680
47547 1.880989 -3.126653 9.363588 0.142855 0.187321 0.258857
47548 1.869166 -3.129884 9.359173 0.136311 0.196620 0.253457
47549 1.881207 -3.139394 9.326160 0.120789 0.174647 0.228533
47550 1.902196 -3.145081 9.330775 0.121798 0.154587 0.238890
47551 1.886982 -3.139400 9.313287 0.119209 0.165090 0.217819
47552 1.869286 -3.118665 9.326434 0.138876 0.188170 0.219599
47553 1.863929 -3.138423 9.312973 0.115948 0.186657 0.212561
47554 1.886398 -3.167855 9.292587 0.088090 0.155849 0.207903
47555 1.852230 -3.171833 9.304937 0.081160 0.191147 0.213710
47556 1.869763 -3.136881 9.283545 0.112171 0.173759 0.186043
47557 1.866222 -3.142297 9.278787 0.105762 0.175318 0.182701
47558 1.847370 -3.151105 9.246961 0.085151 0.184166 0.152398
47559 1.842370 -3.165449 9.246668 0.071501 0.187275 0.155807
47560 1.856553 -3.164470 9.260013 0.080017 0.177754 0.170640
47561 1.814537 -3.142073 9.247538 0.089440 0.218195 0.143291
47562 1.835383 -3.167260 9.243069 0.070003 0.194290 0.151613
47563 1.838010 -3.177065 9.233992 0.059765 0.188696 0.146967
47564 1.850016 -3.174647 9.226695 0.063501 0.176198 0.141844
47565 1.856666 -3.146028 9.227551 0.092917 0.174198 0.134575
47566 1.854900 -3.162339 9.196873 0.069659 0.166706 0.111240
47567 1.872311 -3.153604 9.216068 0.087998 0.156706 0.129589
47568 1.872155 -3.177771 9.245864 0.075176 0.162074 0.164957
47569 1.879942 -3.154663 9.223393 0.093135 0.152501 0.138192
47570 1.852646 -3.131405 9.233903 0.113840 0.185060 0.134698
47571 1.860524 -3.157810 9.231461 0.091486 0.174107 0.142697
47572 1.877470 -3.184925 9.213355 0.065692 0.150822 0.138303
47573 1.863074 -3.177157 9.232318 0.077011 0.171220 0.150303
47574 1.857438 -3.176070 9.255124 0.085267 0.183106 0.169814
47575 1.844229 -3.171681 9.274303 0.093883 0.201848 0.183359
47576 1.858543 -3.180079 9.243098 0.081671 0.179871 0.160212
47577 1.828983 -3.174438 9.216575 0.075206 0.202789 0.127882
47578 1.834615 -3.158137 9.182894 0.083660 0.191528 0.092562
47579 1.810729 -3.169158 9.204229 0.076812 0.219110 0.111000
47580 1.846734 -3.190887 9.208326 0.066615 0.183923 0.129214
47581 1.842393 -3.179410 9.207780 0.078337 0.189849 0.124017
47582 1.821834 -3.183815 9.223053 0.076943 0.213681 0.135352
47583 1.808142 -3.162035 9.208687 0.092625 0.226281 0.112102
47584 1.813987 -3.184038 9.185851 0.068478 0.213110 0.099484
47585 1.817947 -3.204681 9.161386 0.044947 0.201407 0.084555
47586 1.805094 -3.199769 9.156376 0.047989 0.213979 0.075673
47587 1.808728 -3.192991 9.166152 0.060136 0.214077 0.083152
47588 1.822078 -3.207030 9.123125 0.039039 0.189591 0.050848
47589 1.815765 -3.228930 9.106890 0.014861 0.189595 0.041865
47590 1.859058 -3.237365 9.070178 0.006080 0.138807 0.019623
47591 1.835143 -3.238788 9.044765 -0.004833 0.155950 -0.008177
47592 1.850790 -3.223638 9.049971 0.016083 0.144499 -0.005257
47593 1.878097 -3.225535 9.019163 0.012157 0.110586 -0.027456
47594 1.884426 -3.260254 9.009373 -0.020018 0.099339 -0.023634
47595 1.890051 -3.239233 8.972106 -0.008260 0.087431 -0.063808
47596 1.884316 -3.244106 8.971251 -0.012072 0.092726 -0.064141
47597 1.865097 -3.249640 8.972580 -0.017871 0.111585 -0.064981
47598 1.892818 -3.252860 8.958283 -0.018427 0.081608 -0.071437
47599 1.864203 -3.273290 8.964190 -0.038627 0.109296 -0.064994
47600 1.873148 -3.263966 8.988271 -0.018827 0.108136 -0.044129
47601 1.842222 -3.245601 8.985850 -0.005498 0.139345 -0.058783
47602 1.857504 -3.267748 8.981001 -0.022973 0.121722 -0.052732
47603 1.852563 -3.259030 8.960405 -0.019830 0.122340 -0.075603
47604 1.843751 -3.270784 8.958444 -0.030903 0.129478 -0.075262
47605 1.834950 -3.259101 8.935579 -0.026309 0.133634 -0.101996
47606 1.821992 -3.259359 8.928904 -0.028647 0.144492 -0.110680
47607 1.825891 -3.292167 8.929731 -0.056576 0.138317 -0.098115
47608 1.812073 -3.285239 8.947948 -0.044682 0.156632 -0.086478
47609 1.797566 -3.277724 8.967689 -0.031700 0.175744 -0.073775
47610 1.762146 -3.261977 8.966229 -0.020832 0.210713 -0.087588
47611 1.768335 -3.303725 8.981146 -0.052446 0.204537 -0.058565
47612 1.766384 -3.289858 8.982030 -0.037386 0.207053 -0.062788
47613 1.744635 -3.278356 8.983849 -0.027260 0.228772 -0.069373
47614 1.719085 -3.289929 8.960059 -0.047269 0.246019 -0.092502
47615 1.718099 -3.308170 8.970870 -0.059003 0.247071 -0.076573
47616 1.741579 -3.317709 9.009897 -0.050137 0.232026 -0.032685
47617 1.711856 -3.315467 9.007159 -0.051117 0.259098 -0.041928
47618 1.724095 -3.295875 9.005692 -0.029160 0.247072 -0.047373
47619 1.702354 -3.300298 8.968351 -0.045986 0.257399 -0.084556
47620 1.722082 -3.312971 8.919486 -0.068086 0.224346 -0.121178
47621 1.712752 -3.323573 8.906512 -0.081487 0.227827 -0.131349
47622 1.726189 -3.319393 8.918605 -0.069614 0.216239 -0.118882
47623 1.726416 -3.294547 8.896760 -0.051277 0.210795 -0.147272
47624 1.721239 -3.306761 8.895952 -0.062070 0.212824 -0.144870
47625 1.734254 -3.339149 8.867329 -0.097490 0.189506 -0.157556
47626 1.757861 -3.350019 8.820782 -0.117430 0.153085 -0.191880
47627 1.737495 -3.336093 8.796367 -0.113123 0.165998 -0.223066
47628 1.744142 -3.325855 8.805964 -0.098175 0.160540 -0.216332
47629 1.762812 -3.343538 8.801395 -0.112181 0.138414 -0.210761
47630 1.767577 -3.376098 8.790264 -0.144378 0.127508 -0.208965
47631 1.755268 -3.347295 8.747719 -0.131283 0.129462 -0.260263
47632 1.732894 -3.344481 8.743151 -0.132071 0.148838 -0.269843
47633 1.737646 -3.350520 8.687318 -0.153874 0.129700 -0.318148
47634 1.756063 -3.371662 8.660185 -0.179471 0.103137 -0.332232
47635 1.752301 -3.368956 8.662809 -0.175915 0.106380 -0.331459
47636 1.754289 -3.360527 8.678761 -0.162221 0.107487 -0.319239
47637 1.744110 -3.361083 8.685853 -0.161718 0.117910 -0.314536
47638 1.746135 -3.375703 8.701744 -0.169825 0.118072 -0.294545
47639 1.755049 -3.388062 8.727613 -0.171969 0.114065 -0.264789
47640 1.737614 -3.363285 8.731367 -0.149651 0.132091 -0.273186
47641 1.737114 -3.349410 8.725305 -0.138784 0.131399 -0.283564
47642 1.725907 -3.364248 8.720961 -0.155640 0.140287 -0.284739
47643 1.750236 -3.366555 8.698214 -0.163001 0.110917 -0.300067
47644 1.763363 -3.355319 8.712208 -0.146956 0.101209 -0.288413
47645 1.750026 -3.347166 8.737869 -0.133225 0.120031 -0.270222
47646 1.734044 -3.346111 8.722951 -0.139635 0.131975 -0.287466
47647 1.748775 -3.353122 8.732798 -0.142205 0.119145 -0.273128
47648 1.746051 -3.367712 8.733228 -0.157073 0.120910 -0.268339
47649 1.746282 -3.353322 8.769688 -0.132994 0.128988 -0.239641
47650 1.893040 -3.311893 8.700905 -0.102094 -0.028492 -0.287973
47651 1.605199 -3.315373 8.997030 -0.040476 0.316629 -0.071167
47652 1.694891 -3.394670 8.808344 -0.168223 0.184590 -0.200257
47653 1.668272 -3.288084 8.682063 -0.112631 0.185244 -0.357751
47654 1.734101 -3.333467 8.643734 -0.162654 0.110512 -0.364711
47655 1.814909 -3.300012 8.814627 -0.069424 0.068943 -0.202805
47656 1.872786 -3.298805 8.928911 -0.027371 0.036014 -0.086621
47657 1.910955 -3.313829 8.863462 -0.060933 -0.017266 -0.134295
47658 1.899078 -3.302274 8.808832 -0.070765 -0.019026 -0.190837
47659 1.877593 -3.295746 8.753209 -0.086593 -0.011547 -0.248494
47660 1.902734 -3.284433 8.712165 -0.089049 -0.046638 -0.285192
47661 1.930086 -3.284705 8.695451 -0.094366 -0.079058 -0.295160
47662 1.959946 -3.275916 8.778621 -0.058593 -0.092644 -0.215695
47663 1.944360 -3.279035 8.879126 -0.032455 -0.058572 -0.125141
47664 1.913706 -3.282346 8.848856 -0.050199 -0.037962 -0.157932
47665 1.937113 -3.278278 8.781445 -0.068822 -0.078123 -0.216885
47666 1.929585 -3.288596 8.745845 -0.093001 -0.081707 -0.247746
47667 1.890850 -3.258268 8.774155 -0.060523 -0.040829 -0.239391
47668 1.906415 -3.247557 8.780527 -0.049663 -0.058019 -0.234113
47669 1.907862 -3.276505 8.811987 -0.069055 -0.056540 -0.195163
47670 1.914693 -3.281081 8.797656 -0.080384 -0.069992 -0.205573
47671 1.885073 -3.287012 8.816407 -0.084785 -0.041067 -0.192056
47672 1.873282 -3.249843 8.788854 -0.062193 -0.038919 -0.232210
47673 1.865527 -3.258110 8.747326 -0.087068 -0.043812 -0.269308
47674 1.847321 -3.272535 8.747127 -0.104816 -0.030073 -0.268219
47675 1.851748 -3.257114 8.780506 -0.082029 -0.031635 -0.241735
47676 1.849467 -3.247834 8.795476 -0.071895 -0.030340 -0.231481
47677 1.841316 -3.226339 8.790548 -0.056822 -0.027634 -0.244769
47678 1.846932 -3.218820 8.818200 -0.043709 -0.031726 -0.220686
47679 1.843461 -3.215243 8.845505 -0.034868 -0.027100 -0.197331
47680 1.841566 -3.206180 8.822373 -0.037693 -0.033999 -0.222099
47681 1.826293 -3.180353 8.835018 -0.013681 -0.020902 -0.221876
47682 1.831886 -3.264081 8.894978 -0.076430 -0.017766 -0.137696
47683 1.854143 -3.249167 8.783593 -0.101357 -0.065544 -0.241500
47684 1.854611 -3.200584 8.715854 -0.081627 -0.083806 -0.320185
47685 1.852691 -3.176149 8.864370 -0.014233 -0.057440 -0.191239
47686 1.871515 -3.187958 8.990866 0.012812 -0.055415 -0.066786
47687 1.865659 -3.203051 8.957457 -0.016705 -0.059980 -0.093863
47688 1.854647 -3.198332 8.907988 -0.033208 -0.062450 -0.143305
47689 1.850902 -3.185247 8.957155 -0.009108 -0.053825 -0.102796
47690 1.856708 -3.189341 8.959230 -0.016366 -0.063023 -0.098482
47691 1.847945 -3.165327 8.973702 0.006356 -0.056252 -0.094585
47692 1.889333 -3.154330 9.009704 0.025585 -0.094560 -0.057200
47693 1.886537 -3.156281 9.073404 0.039884 -0.083929 0.001951
47694 1.906576 -3.165251 9.096213 0.035276 -0.103347 0.029691
47695 1.882296 -3.147639 9.055158 0.033276 -0.091856 -0.018606
47696 1.903916 -3.161094 9.046387 0.013917 -0.118698 -0.018447
47697 1.897665 -3.141321 9.062493 0.033044 -0.114273 -0.011108
47698 1.886250 -3.116968 9.093800 0.061769 -0.102437 0.007931
47699 1.891514 -3.099830 9.085114 0.070630 -0.114123 -0.004747
47700 1.900394 -3.127525 9.101284 0.045526 -0.123452 0.020819
47701 1.904223 -3.111270 9.103699 0.057065 -0.131664 0.018465
47702 1.932753 -3.103544 9.101400 0.060000 -0.164705 0.018950
47703 1.902538 -3.112421 9.104982 0.047313 -0.138374 0.019659
47704 1.924640 -3.087406 9.109669 0.068526 -0.164694 0.019881
47705 1.902501 -3.076074 9.100410 0.071214 -0.149408 0.003618
47706 1.898670 -3.080853 9.105217 0.063687 -0.149027 0.008904
47707 1.902372 -3.049334 9.156139 0.105650 -0.149308 0.046784
47708 1.873735 -3.070586 9.177465 0.087517 -0.120878 0.068318
47709 1.863505 -3.082966 9.186220 0.074136 -0.112845 0.078602
47710 1.875049 -3.093945 9.160347 0.050949 -0.132389 0.060060
47711 1.853152 -3.058643 9.175915 0.084947 -0.113784 0.059381
47712 1.836522 -3.026757 9.188619 0.114854 -0.100774 0.058090
47713 1.839667 -3.044267 9.174317 0.089243 -0.109381 0.050909
47714 1.846207 -3.053961 9.204112 0.085503 -0.114153 0.082892
47715 1.853459 -3.040574 9.188302 0.088907 -0.128393 0.065167
47716 1.861214 -3.026974 9.179784 0.094713 -0.141757 0.054255
47717 1.861245 -3.015659 9.172766 0.099014 -0.147238 0.044119
47718 1.871931 -3.032976 9.185518 0.082439 -0.158142 0.063344
47719 1.891880 -3.042367 9.204046 0.075204 -0.177624 0.087040
47720 1.890681 -3.009114 9.213061 0.105368 -0.180134 0.084708
47721 1.874090 -2.995203 9.195721 0.108799 -0.170717 0.061254
47722 1.889530 -2.989157 9.190604 0.108683 -0.190362 0.057235
47723 1.892405 -2.993979 9.210558 0.106188 -0.192719 0.077860
47724 1.896469 -2.993302 9.224137 0.107154 -0.197535 0.091000
47725 1.909076 -2.975248 9.220847 0.119070 -0.214557 0.084408
47726 1.875369 -2.960954 9.200688 0.122384 -0.188384 0.055293
47727 1.894063 -2.967697 9.215875 0.116606 -0.206494 0.074800
47728 1.902187 -2.977108 9.233787 0.109317 -0.213670 0.095859
47729 1.923849 -2.964364 9.289345 0.134858 -0.229549 0.147474
47730 1.925757 -2.955436 9.292059 0.140394 -0.233907 0.147545
47731 1.934906 -2.955940 9.285732 0.133562 -0.246258 0.143353
47732 1.958228 -2.964384 9.274628 0.117685 -0.272642 0.139577
47733 1.972001 -2.943675 9.249688 0.125087 -0.293582 0.112150
47734 1.976074 -2.944467 9.198184 0.104129 -0.307382 0.064922
47735 1.998182 -2.988808 9.155956 0.044332 -0.334184 0.042954
47736 1.992245 -2.968220 9.146310 0.057145 -0.332767 0.026493
47737 1.999604 -2.979858 9.156582 0.045297 -0.338906 0.040936
47738 2.006085 -2.953399 9.163591 0.068721 -0.347425 0.040372
47739 1.977516 -2.970385 9.137442 0.041097 -0.323127 0.016309
47740 1.977954 -2.986309 9.122629 0.017663 -0.325285 0.007432
47741 2.030156 -3.011113 9.056882 -0.031946 -0.385271 -0.037621
47742 2.010052 -2.969592 9.057268 0.004381 -0.369041 -0.053493
47743 2.054680 -2.970616 9.059704 -0.001027 -0.412811 -0.043357
47744 2.054784 -2.956607 9.067678 0.010967 -0.413046 -0.040196
47745 2.090827 -2.950834 9.038709 0.002238 -0.453390 -0.063001
47746 2.102062 -2.960597 9.004599 -0.022032 -0.468599 -0.090039
47747 2.106862 -2.937783 9.015677 -0.001080 -0.473251 -0.085843
47748 2.104173 -2.931771 8.995020 -0.005809 -0.473979 -0.107485
47749 2.114059 -2.942569 8.988202 -0.022513 -0.483336 -0.108875
47750 2.140912 -2.961889 8.968190 -0.051997 -0.510643 -0.117162
47751 2.148635 -2.942709 8.963560 -0.039686 -0.520058 -0.126045
47752 2.149430 -2.936124 8.963321 -0.037805 -0.520700 -0.128122
47753 2.160874 -2.930125 8.957143 -0.038490 -0.532744 -0.133781
47754 2.165299 -2.952241 8.948345 -0.066712 -0.535735 -0.134528
47755 2.181423 -2.945065 8.937946 -0.067937 -0.553041 -0.143714
47756 2.162756 -2.929176 8.950570 -0.052410 -0.533197 -0.139831
47757 2.161700 -2.910479 8.929514 -0.045737 -0.536084 -0.165397
47758 2.197100 -2.918538 8.907840 -0.065881 -0.572670 -0.177259
47759 2.216033 -2.944144 8.911416 -0.094205 -0.587758 -0.162946
47760 2.212045 -2.929349 8.923000 -0.080839 -0.582591 -0.157214
47761 2.211164 -2.905588 8.910683 -0.066466 -0.584879 -0.176067
47762 2.221874 -2.915796 8.906315 -0.082590 -0.594122 -0.175246
47763 2.238957 -2.912559 8.936977 -0.075355 -0.605912 -0.144533
47764 2.254435 -2.890987 8.943145 -0.058052 -0.621324 -0.142558
47765 2.238492 -2.875358 8.962114 -0.041284 -0.603563 -0.132126
47766 2.237657 -2.878294 8.984001 -0.042083 -0.598566 -0.110821
47767 2.233288 -2.861906 8.999063 -0.026442 -0.593190 -0.102313
47768 2.248637 -2.889770 9.028721 -0.049053 -0.601065 -0.063538
47769 2.234345 -2.854588 9.042261 -0.015787 -0.587825 -0.063722
47770 2.238328 -2.820817 9.057223 0.016102 -0.592482 -0.059020
47771 2.258726 -2.826842 9.083972 0.012940 -0.608319 -0.028636
47772 2.294182 -2.840625 9.080256 -0.007520 -0.643004 -0.022045
47773 2.291756 -2.818344 9.105114 0.016599 -0.639424 -0.005714
47774 2.296818 -2.795201 9.130624 0.041370 -0.643333 0.012265
47775 2.311421 -2.793172 9.096483 0.027538 -0.664092 -0.018012
47776 2.314585 -2.786208 9.123602 0.037622 -0.664618 0.005934
47777 2.297568 -2.804183 9.144859 0.022911 -0.644346 0.028259
47778 2.308543 -2.769790 9.161969 0.055781 -0.657033 0.036048
47779 2.298568 -2.769714 9.177884 0.056565 -0.646397 0.049234
47780 2.334141 -2.776523 9.193429 0.048715 -0.680272 0.071780
47781 2.332547 -2.777164 9.185578 0.041221 -0.681621 0.064205
47782 2.291382 -2.747967 9.175397 0.063042 -0.647088 0.039051
47783 2.291650 -2.741478 9.167368 0.062085 -0.651277 0.029532
47784 2.274713 -2.752759 9.163404 0.046354 -0.636274 0.026119
47785 2.266475 -2.776608 9.167094 0.020608 -0.627723 0.035012
47786 2.238527 -2.776177 9.195514 0.026442 -0.598375 0.056837
47787 2.188088 -2.753138 9.210305 0.050393 -0.550970 0.055531
47788 2.135315 -2.730587 9.226391 0.074494 -0.500983 0.055241
47789 2.111102 -2.743713 9.179861 0.044747 -0.485206 0.011037
47790 2.074151 -2.782868 9.173047 0.002489 -0.448832 0.009642
47791 2.053239 -2.767683 9.186619 0.017539 -0.429757 0.014492
47792 1.986958 -2.747328 9.205354 0.040956 -0.365908 0.015200
47793 1.975945 -2.754745 9.220284 0.034371 -0.354507 0.029522
47794 1.952350 -2.771801 9.207669 0.010993 -0.333980 0.018529
47795 1.930418 -2.766359 9.197699 0.009821 -0.316499 0.003867
47796 1.901802 -2.765581 9.198153 0.007574 -0.290455 -0.000721
47797 1.851576 -2.759436 9.199860 0.011682 -0.243277 -0.009202
47798 1.871987 -2.765424 9.189910 -0.001918 -0.266215 -0.013572
47799 1.862033 -2.778383 9.197574 -0.016128 -0.256338 -0.004340
47800 1.837743 -2.743240 9.219275 0.020502 -0.234208 0.002115
47801 1.803490 -2.727830 9.224789 0.033910 -0.202763 -0.002704
47802 1.840062 -2.755978 9.217265 -0.000873 -0.239327 0.004133
47803 1.861293 -2.749008 9.215367 0.000074 -0.262950 0.003792
47804 1.834065 -2.726490 9.200443 0.014006 -0.242029 -0.021178
47805 1.847905 -2.701405 9.225366 0.040526 -0.255991 -0.002478
47806 1.853620 -2.698628 9.254148 0.047013 -0.259432 0.024856
47807 1.888196 -2.700186 9.258615 0.041446 -0.294902 0.035108
47808 1.895911 -2.705918 9.294520 0.041822 -0.298641 0.071896
47809 1.906352 -2.678716 9.310874 0.068031 -0.310906 0.081381
47810 1.897872 -2.667054 9.360452 0.089577 -0.298465 0.123608
47811 1.946076 -2.676340 9.386173 0.082677 -0.343662 0.158317
47812 1.944651 -2.675181 9.391928 0.081491 -0.344332 0.163147
47813 1.947014 -2.642829 9.390092 0.107992 -0.352334 0.152693
47814 1.953028 -2.631982 9.426819 0.125055 -0.356730 0.185345
47815 1.968232 -2.613782 9.435267 0.140632 -0.375176 0.190648
47816 1.997436 -2.643398 9.438305 0.108579 -0.404721 0.206363
47817 1.994205 -2.660750 9.437781 0.088398 -0.404046 0.210053
47818 1.965253 -2.620048 9.443996 0.126471 -0.381624 0.199905
47819 1.943748 -2.613876 9.445971 0.130301 -0.364564 0.196535
47820 1.948389 -2.611612 9.434599 0.125766 -0.375528 0.185741
47821 1.910138 -2.642536 9.432583 0.093499 -0.340453 0.186193
47822 1.916464 -2.630688 9.434122 0.102010 -0.352260 0.185238
47823 1.887763 -2.619411 9.453791 0.116331 -0.326993 0.196119
47824 1.852679 -2.638527 9.422463 0.086786 -0.300806 0.166044
47825 1.868362 -2.630424 9.402709 0.085641 -0.325052 0.147381
47826 1.853035 -2.637610 9.387355 0.071995 -0.317753 0.132232
47827 1.833548 -2.635777 9.360772 0.063778 -0.308366 0.103312
47828 1.801178 -2.607232 9.339372 0.083392 -0.287626 0.069991
47829 1.828930 -2.632203 9.302287 0.045441 -0.325163 0.045725
47830 1.804816 -2.663018 9.285073 0.009000 -0.308545 0.033928
47831 1.791060 -2.625225 9.310553 0.049979 -0.300840 0.045465
47832 1.762603 -2.615210 9.353289 0.069685 -0.274599 0.078801
47833 1.729813 -2.597922 9.323520 0.076061 -0.254841 0.040665
47834 1.704913 -2.626962 9.306081 0.041310 -0.238335 0.028122
47835 1.689210 -2.647048 9.286978 0.014370 -0.231995 0.012926
47836 1.651078 -2.624591 9.264282 0.027758 -0.206762 -0.020613
47837 1.631428 -2.612627 9.242650 0.031009 -0.199240 -0.047505
47838 1.612062 -2.633626 9.200615 -0.003064 -0.192557 -0.084760
47839 1.617343 -2.633649 9.208920 -0.003489 -0.205068 -0.076253
47840 1.581745 -2.647318 9.227340 -0.013497 -0.175104 -0.060355
47841 1.555322 -2.618582 9.225852 0.011600 -0.159266 -0.073538
47842 1.525192 -2.605754 9.241592 0.026030 -0.136901 -0.066491
47843 1.545503 -2.606140 9.262777 0.028427 -0.163140 -0.043454
47844 1.508327 -2.626141 9.262216 0.007198 -0.133947 -0.043965
47845 1.517811 -2.627541 9.286456 0.009662 -0.149131 -0.019296
47846 1.498805 -2.632915 9.301288 0.006115 -0.137311 -0.006504
47847 1.505284 -2.627299 9.296756 0.007528 -0.153802 -0.011573
47848 1.500500 -2.642134 9.286695 -0.012144 -0.158927 -0.017967
47849 1.495351 -2.657415 9.292550 -0.027655 -0.161740 -0.009127
47850 1.480046 -2.631793 9.305111 -0.002099 -0.155616 -0.006301
47851 1.465309 -2.640705 9.294762 -0.015840 -0.151549 -0.015912
47852 1.440102 -2.636909 9.319770 -0.007727 -0.133222 0.003390
47853 1.417695 -2.597905 9.322021 0.028055 -0.122174 -0.008060
47854 1.382578 -2.605273 9.342913 0.024553 -0.093962 0.009112
47855 1.343010 -2.605160 9.327889 0.018119 -0.066319 -0.010517
47856 1.329583 -2.611290 9.300601 0.002341 -0.065588 -0.036725
47857 1.281043 -2.631439 9.289083 -0.022277 -0.027388 -0.048636
47858 1.263832 -2.606636 9.297312 0.001259 -0.019801 -0.049658
47859 1.236562 -2.590465 9.292463 0.013044 -0.003337 -0.062099
47860 1.224627 -2.605613 9.277735 -0.008100 -0.001802 -0.073626
47861 1.202086 -2.617015 9.295676 -0.016976 0.013962 -0.056259
47862 1.180106 -2.609414 9.322227 -0.005086 0.029410 -0.035635
47863 1.154529 -2.576851 9.347571 0.030651 0.047517 -0.023223
47864 1.147986 -2.568867 9.350980 0.036451 0.045175 -0.022842
47865 1.142632 -2.592817 9.323457 0.003185 0.039162 -0.043386
47866 1.154138 -2.597353 9.311095 -0.007422 0.017579 -0.052586
47867 1.132342 -2.568826 9.304046 0.015315 0.028542 -0.069505
47868 1.110049 -2.583837 9.290579 -0.005536 0.040944 -0.081021
47869 1.131174 -2.581145 9.253837 -0.015729 0.006831 -0.114381
47870 1.110410 -2.596846 9.239937 -0.037412 0.017940 -0.125952
47871 1.079876 -2.594114 9.236782 -0.038568 0.039220 -0.133234
47872 1.063514 -2.577086 9.250401 -0.021609 0.048206 -0.126561
47873 1.073773 -2.577695 9.281312 -0.017081 0.033069 -0.095594
47874 1.060209 -2.584364 9.317628 -0.016938 0.042556 -0.060568
47875 1.059053 -2.569386 9.353689 0.003850 0.038823 -0.030071
47876 1.013380 -2.553828 9.383093 0.023460 0.079044 -0.011064
47877 1.001744 -2.538237 9.390813 0.037227 0.083011 -0.008986
47878 1.003874 -2.550466 9.368193 0.016256 0.070703 -0.027146
47879 1.012940 -2.563057 9.349245 -0.003978 0.052269 -0.040962
47880 1.002261 -2.546420 9.363524 0.012550 0.056539 -0.032751
47881 0.972706 -2.509143 9.385382 0.051016 0.079847 -0.024688
47882 0.947480 -2.546827 9.387178 0.011696 0.098575 -0.015731
47883 0.957023 -2.541338 9.419504 0.022234 0.085099 0.014936
47884 0.933201 -2.535447 9.419850 0.024719 0.101329 0.011286
47885 0.907182 -2.517603 9.408455 0.035383 0.118817 -0.006950
47886 0.891232 -2.526712 9.433185 0.029615 0.130584 0.017591
47887 0.845580 -2.522037 9.454689 0.036194 0.171108 0.032402
47888 0.837238 -2.514760 9.465331 0.042581 0.173794 0.039991
47889 0.828194 -2.525654 9.475244 0.031368 0.177502 0.051540
47890 0.800794 -2.521729 9.495292 0.036848 0.200274 0.067124
47891 0.812593 -2.544240 9.459038 0.002423 0.178819 0.039457
47892 0.788419 -2.539578 9.452600 0.001660 0.195891 0.029754
47893 0.781402 -2.514226 9.442018 0.020042 0.195203 0.012463
47894 0.769444 -2.508593 9.460305 0.026812 0.202670 0.027532
47895 0.768459 -2.494031 9.449375 0.034743 0.196401 0.013309
47896 0.752601 -2.522308 9.428375 -0.001387 0.204547 -0.001029
47897 0.742158 -2.518215 9.429480 -0.000458 0.209007 -0.001909
47898 0.730166 -2.510156 9.421088 0.001854 0.214228 -0.013084
47899 0.750407 -2.508711 9.397737 -0.005658 0.186162 -0.033848
47900 0.732866 -2.510295 9.396534 -0.011004 0.197847 -0.036169
47901 0.758559 -2.530153 9.377565 -0.038017 0.164703 -0.046787
47902 0.718574 -2.514363 9.397755 -0.021526 0.200790 -0.035084
47903 0.743235 -2.505302 9.381164 -0.019694 0.168878 -0.050945
47904 0.732853 -2.488863 9.387275 -0.005956 0.173929 -0.050132
47905 0.729043 -2.501708 9.401334 -0.018142 0.173301 -0.033581
47906 0.754666 -2.504555 9.441306 -0.013343 0.145820 0.008077
47907 0.721364 -2.478170 9.481380 0.018236 0.176738 0.037004
47908 0.729958 -2.452146 9.458755 0.034594 0.159981 0.009501
47909 0.735878 -2.485002 9.464098 0.001019 0.148354 0.023616
47910 0.735415 -2.481018 9.485310 0.007135 0.144774 0.043089
47911 0.723488 -2.450534 9.476454 0.030902 0.149715 0.025884
47912 0.708808 -2.448265 9.486195 0.032104 0.158808 0.033507
47913 0.688129 -2.419165 9.501638 0.060468 0.174854 0.039348
47914 0.677552 -2.474470 9.541522 0.013741 0.182375 0.090932
47915 0.657048 -2.434681 9.529019 0.045535 0.195710 0.067214
47916 0.655971 -2.429265 9.507595 0.042351 0.188383 0.045244
47917 0.631280 -2.434167 9.518942 0.036764 0.207800 0.055447
47918 0.622733 -2.440463 9.511652 0.025556 0.209286 0.049416
47919 0.599115 -2.457039 9.502627 0.003658 0.225996 0.043015
47920 0.561347 -2.442415 9.524414 0.019011 0.259410 0.057367
47921 0.518219 -2.420090 9.546783 0.041841 0.298616 0.069967
47922 0.537065 -2.445440 9.530404 0.010925 0.272190 0.062228
47923 0.516703 -2.445535 9.563812 0.015677 0.289635 0.092993
47924 0.494676 -2.419419 9.594118 0.044836 0.308792 0.114125
47925 0.456762 -2.389993 9.618674 0.075369 0.343419 0.127647
47926 0.448500 -2.391577 9.640633 0.076063 0.347896 0.148796
47927 0.453277 -2.436323 9.651121 0.032720 0.337915 0.170622
47928 0.431387 -2.425574 9.640773 0.037021 0.353726 0.156421
47929 0.401719 -2.407761 9.655663 0.054395 0.379419 0.164266
47930 0.420087 -2.389165 9.627316 0.063415 0.353832 0.133924
47931 0.383187 -2.424727 9.599895 0.018367 0.382704 0.113579
47932 0.420151 -2.416844 9.606085 0.026425 0.341568 0.120638
47933 0.418697 -2.411808 9.630981 0.034667 0.340565 0.143498
47934 0.404546 -2.402754 9.639475 0.042649 0.350774 0.148571
47935 0.427979 -2.394172 9.619451 0.044475 0.321441 0.129040
47936 0.430586 -2.413913 9.614836 0.022134 0.313800 0.129782
47937 0.430197 -2.415723 9.625314 0.020491 0.310586 0.140470
47938 0.454508 -2.385590 9.650171 0.054580 0.284745 0.159026
47939 0.442826 -2.391689 9.699524 0.057860 0.296186 0.207498
47940 0.459762 -2.395519 9.688382 0.049888 0.274371 0.199036
47941 0.461510 -2.419283 9.686420 0.024459 0.267942 0.203213
47942 0.442266 -2.388199 9.674907 0.049124 0.282925 0.183186
47943 0.447382 -2.376511 9.689635 0.062170 0.275738 0.195046
47944 0.453306 -2.365637 9.678019 0.068161 0.265387 0.181693
47945 0.470895 -2.390640 9.681754 0.043894 0.243940 0.192779
47946 0.465941 -2.373402 9.697910 0.062450 0.247006 0.203938
47947 0.464466 -2.361675 9.695953 0.071638 0.244988 0.199179
47948 0.460325 -2.350538 9.695410 0.080414 0.246105 0.195730
47949 0.490352 -2.357017 9.708497 0.077238 0.213555 0.212168
47950 0.507108 -2.361249 9.709393 0.072720 0.193250 0.215318
47951 0.485736 -2.346839 9.722613 0.087414 0.212543 0.223199
47952 0.493336 -2.362924 9.707147 0.067143 0.199902 0.212753
47953 0.526934 -2.344822 9.694661 0.082089 0.162490 0.198653
47954 0.546593 -2.363757 9.694595 0.063618 0.138794 0.204601
47955 0.535397 -2.359037 9.681138 0.063333 0.145606 0.189727
47956 0.523605 -2.347874 9.659468 0.067214 0.152539 0.165300
47957 0.530936 -2.342170 9.620386 0.062791 0.139093 0.126644
47958 0.565054 -2.387786 9.582316 0.010352 0.097384 0.103208
47959 0.579034 -2.373845 9.577641 0.022614 0.080087 0.096265
47960 0.553424 -2.365074 9.565107 0.026060 0.101548 0.080340
47961 0.539676 -2.335614 9.552341 0.050082 0.111859 0.059972
47962 0.563353 -2.357189 9.553878 0.030157 0.084172 0.068281
47963 0.554304 -2.382918 9.565337 0.006477 0.089725 0.085052
47964 0.576540 -2.359227 9.564590 0.029866 0.064880 0.080059
47965 0.566826 -2.338452 9.554479 0.046379 0.071050 0.064637
47966 0.582847 -2.339548 9.563136 0.047760 0.052214 0.074338
47967 0.607146 -2.352540 9.579751 0.039974 0.025146 0.095139
47968 0.617126 -2.354597 9.604616 0.043819 0.013298 0.120356
47969 0.613192 -2.318133 9.632550 0.085156 0.016870 0.138339
47970 0.632989 -2.309410 9.630294 0.094063 -0.006592 0.135293
47971 0.637999 -2.339957 9.633372 0.065081 -0.016659 0.145971
47972 0.591443 -2.353839 9.652727 0.053395 0.026908 0.165185
47973 -0.410019 -2.375113 9.576128 -0.041649 1.017982 0.034292
47974 -0.670419 -2.524556 9.616618 -0.193627 1.275893 0.093334
47975 0.466400 -2.693753 8.739388 -0.505072 0.073589 -0.645030
47976 0.608264 -2.626173 8.776162 -0.423702 -0.060167 -0.616942
47977 0.772924 -1.543221 10.230509 0.981313 -0.070314 0.540527
47978 1.224072 -2.113395 10.812764 0.592849 -0.499932 1.270195
47979 1.250711 -2.403070 10.957457 0.348553 -0.529159 1.481780
47980 0.707089 -2.207878 10.517756 0.401583 -0.013936 0.974936
47981 0.446094 -2.374802 9.606329 0.007590 0.169956 0.116309
47982 0.304950 -2.452620 8.881104 -0.248558 0.253318 -0.576042
47983 0.342152 -2.258026 8.811312 -0.074431 0.220392 -0.688297
47984 0.565523 -2.233789 9.317372 0.083028 0.037702 -0.190157
47985 0.715179 -2.260759 10.271423 0.293305 -0.039953 0.749613
47986 0.854931 -2.233339 10.807833 0.456828 -0.137333 1.271156
47987 0.881773 -2.387588 10.414331 0.216165 -0.201507 0.928972
47988 0.772609 -2.243189 9.758737 0.194689 -0.136273 0.252387
47989 0.642755 -2.298916 9.178160 -0.004926 -0.053832 -0.304453
47990 0.690893 -2.339871 9.036206 -0.074259 -0.114624 -0.429021
47991 0.674655 -2.364165 9.343744 -0.024888 -0.075851 -0.126347
47992 0.632758 -2.264757 9.921464 0.206852 0.015269 0.406410
47993 0.817252 -2.283995 10.135182 0.252001 -0.152904 0.629474
47994 0.886909 -2.349474 9.865246 0.130431 -0.246041 0.388263
47995 0.820140 -2.256849 9.599901 0.153879 -0.195524 0.104734
47996 0.790646 -2.274615 9.314176 0.067935 -0.189199 -0.169460
47997 0.766239 -2.322720 9.341392 0.027457 -0.165495 -0.132977
47998 0.758934 -2.289056 9.473058 0.092466 -0.146320 -0.014132
47999 0.755908 -2.367227 9.724660 0.077649 -0.128110 0.248219
48000 0.852207 -2.299637 9.727824 0.152009 -0.220155 0.240838
48001 0.772290 -2.339263 9.636938 0.087699 -0.149941 0.157498
48002 0.787880 -2.284610 9.509399 0.113087 -0.172657 0.021698
48003 0.776833 -2.370757 9.431238 0.011556 -0.172761 -0.033714
48004 0.683167 -2.333377 9.595081 0.081627 -0.064692 0.109980
48005 0.724028 -2.302140 9.712374 0.144439 -0.094358 0.218420
48006 0.751880 -2.369121 9.697722 0.079851 -0.126839 0.222263
48007 0.814625 -2.261738 9.692474 0.188950 -0.183204 0.194877
48008 0.787387 -2.294445 9.645192 0.145858 -0.161641 0.155378
48009 0.844246 -2.279242 9.623968 0.161736 -0.218995 0.134617
48010 0.815132 -2.333370 9.634404 0.111733 -0.192569 0.156104
48011 0.824221 -2.321301 9.737503 0.150897 -0.192590 0.253459
48012 0.782517 -2.312013 9.780253 0.169048 -0.147382 0.289935
48013 0.794332 -2.337361 9.799883 0.152574 -0.159165 0.315826
48014 0.836150 -2.281679 9.726328 0.194681 -0.203011 0.233552
48015 0.757418 -2.290504 9.746028 0.187032 -0.123545 0.249869
48016 0.802268 -2.251232 9.723934 0.225856 -0.167429 0.221571
48017 0.812430 -2.356211 9.686211 0.119021 -0.187318 0.211458
48018 0.730963 -2.289664 9.783901 0.202967 -0.093709 0.284516
48019 0.785878 -2.284744 9.803259 0.219777 -0.146207 0.305356
48020 0.819389 -2.370011 9.743045 0.128733 -0.189795 0.270169
48021 0.815886 -2.284318 9.822914 0.233834 -0.174072 0.325980
48022 0.815853 -2.296791 9.781976 0.215096 -0.178309 0.289401
48023 0.746432 -2.286956 9.790262 0.223849 -0.107938 0.290640
48024 0.751515 -2.330241 9.728588 0.171018 -0.121046 0.241975
48025 0.701566 -2.384522 9.622693 0.091906 -0.083688 0.149957
48026 0.706546 -2.334754 9.638904 0.147818 -0.083528 0.153530
48027 0.777911 -2.345851 9.586939 0.134627 -0.159370 0.110393
48028 0.769570 -2.364847 9.703112 0.147330 -0.142747 0.226846
48029 0.809853 -2.307729 9.777053 0.228268 -0.172166 0.286458
48030 0.800005 -2.376302 9.783768 0.166872 -0.167117 0.309397
48031 0.750847 -2.356649 9.730932 0.172300 -0.121422 0.250350
48032 0.704639 -2.385495 9.659135 0.126315 -0.083423 0.185323
48033 0.722645 -2.408006 9.489049 0.068674 -0.117176 0.027719
48034 0.801856 -2.435388 9.436940 0.041259 -0.202366 -0.010916
48035 0.746616 -2.383092 9.508980 0.107909 -0.137040 0.042103
48036 0.725688 -2.322805 9.694369 0.213574 -0.095839 0.204600
48037 0.799061 -2.390515 9.684978 0.157549 -0.174952 0.217024
48038 0.742705 -2.404885 9.693099 0.144572 -0.119729 0.224997
48039 0.775861 -2.405329 9.586914 0.125698 -0.161882 0.124543
48040 0.660610 -2.448458 9.500937 0.055234 -0.058469 0.045446
48041 0.585160 -2.339955 9.542869 0.166426 0.029420 0.053724
48042 0.663009 -2.479028 9.446047 0.020941 -0.068131 0.000354
48043 0.640857 -2.449326 9.571711 0.082612 -0.032526 0.112691
48044 0.692200 -2.379233 9.658315 0.181441 -0.069636 0.181409
48045 0.706006 -2.443477 9.632051 0.119003 -0.091043 0.173273
48046 0.689320 -2.369121 9.693194 0.208740 -0.062309 0.212126
48047 0.748794 -2.443849 9.611129 0.127715 -0.135150 0.155660
48048 0.726457 -2.472628 9.558915 0.089145 -0.120111 0.111300
48049 0.611482 -2.425835 9.602609 0.136968 0.002106 0.134397
48050 0.623365 -2.423312 9.558550 0.134288 -0.012993 0.091915
48051 0.629975 -2.474516 9.516759 0.079913 -0.027860 0.065208
48052 0.671009 -2.439945 9.563821 0.134586 -0.060949 0.104037
48053 0.706867 -2.480458 9.580253 0.109085 -0.098704 0.132481
48054 0.624953 -2.448828 9.564676 0.130728 -0.015448 0.104272
48055 0.606063 -2.440751 9.609268 0.152453 0.008489 0.143937
48056 0.625328 -2.492162 9.551198 0.095515 -0.020457 0.102484
48057 0.623639 -2.499716 9.512465 0.083176 -0.022567 0.066996
48058 0.591230 -2.504427 9.538680 0.086170 0.012223 0.091496
48059 0.573385 -2.504197 9.538154 0.089065 0.030685 0.089811
48060 0.564450 -2.529733 9.518493 0.063328 0.036046 0.077013
48061 0.539718 -2.509422 9.503096 0.080427 0.062469 0.055314
48062 0.539659 -2.528458 9.502285 0.066664 0.061881 0.059505
48063 0.519479 -2.526735 9.494104 0.068292 0.082976 0.049916
48064 0.524820 -2.540548 9.488138 0.058883 0.077592 0.048107
48065 0.531198 -2.551112 9.511695 0.060330 0.074227 0.073921
48066 0.548914 -2.559465 9.513883 0.059885 0.058340 0.079273
48067 0.529727 -2.559672 9.506964 0.059986 0.079282 0.071460
48068 0.505469 -2.548442 9.502242 0.070515 0.106887 0.062390
48069 0.512109 -2.556431 9.480832 0.062800 0.100533 0.044276
48070 0.498121 -2.579130 9.475128 0.042079 0.114407 0.043949
48071 0.512899 -2.586346 9.495206 0.046637 0.104629 0.066039
48072 0.506739 -2.590256 9.492334 0.045620 0.113729 0.063881
48073 0.487252 -2.572771 9.500854 0.066020 0.140054 0.066072
48074 0.497884 -2.573988 9.481490 0.065636 0.131720 0.048371
48075 0.492155 -2.596541 9.475233 0.045629 0.138528 0.047998
48076 0.488173 -2.586667 9.473301 0.058060 0.148010 0.043131
48077 0.492439 -2.584159 9.511229 0.075115 0.152619 0.079054
48078 0.502206 -2.597462 9.567557 0.082453 0.152113 0.137276
48079 0.509442 -2.601509 9.578091 0.086554 0.150684 0.148846
48080 0.525619 -2.592235 9.593560 0.106024 0.142767 0.162108
48081 0.539143 -2.580359 9.605552 0.126749 0.137584 0.171141
48082 0.525342 -2.587452 9.630584 0.128900 0.158835 0.196043
48083 0.528311 -2.588316 9.639551 0.135140 0.162437 0.204932
48084 0.543811 -2.602316 9.647580 0.130640 0.151941 0.217368
48085 0.548432 -2.589360 9.675422 0.155362 0.157911 0.240669
48086 0.530053 -2.601581 9.687307 0.148813 0.181653 0.254012
48087 0.513134 -2.629105 9.681785 0.123093 0.200227 0.254972
48088 0.540679 -2.642093 9.705959 0.125784 0.180112 0.283467
48089 0.501495 -2.643955 9.691503 0.118891 0.222951 0.267223
48090 0.504955 -2.627900 9.673880 0.134876 0.226158 0.245923
48091 0.492824 -2.645669 9.647153 0.113727 0.239277 0.224195
48092 0.505922 -2.655665 9.620756 0.104163 0.228534 0.202419
48093 0.491225 -2.659038 9.597644 0.097175 0.246685 0.179968
48094 0.497235 -2.648937 9.593498 0.111451 0.248661 0.173385
48095 0.494529 -2.670022 9.584115 0.093309 0.254422 0.169888
48096 0.488266 -2.712166 9.569557 0.053100 0.259923 0.167110
48097 0.486446 -2.710083 9.552291 0.054989 0.267394 0.149648
48098 0.475391 -2.714083 9.537851 0.050205 0.283625 0.135900
48099 0.451526 -2.708683 9.513971 0.049407 0.312635 0.109486
48100 0.471395 -2.725822 9.498820 0.037099 0.296737 0.101110
48101 0.485555 -2.764797 9.504812 0.009071 0.286050 0.118737
48102 0.473128 -2.746739 9.503864 0.028336 0.309337 0.111467
48103 0.481526 -2.720679 9.486738 0.054331 0.311508 0.088045
48104 0.477195 -2.749395 9.475436 0.027751 0.319021 0.084804
48105 0.508393 -2.772857 9.441044 0.006482 0.289319 0.060899
48106 0.523273 -2.778915 9.468074 0.015168 0.286464 0.089364
48107 0.525473 -2.764250 9.490640 0.040001 0.298808 0.106573
48108 0.547502 -2.775637 9.499555 0.040100 0.285999 0.119875
48109 0.571948 -2.802469 9.483532 0.019607 0.265192 0.114100
48110 0.609714 -2.818792 9.456324 0.008524 0.231704 0.095806
48111 0.571255 -2.795022 9.449688 0.026520 0.281857 0.079062
48112 0.589441 -2.797314 9.458805 0.034596 0.274551 0.089689
48113 0.618682 -2.816581 9.436800 0.020590 0.249747 0.076591
48114 0.646671 -2.838987 9.436790 0.009597 0.228612 0.085326
48115 0.641632 -2.820433 9.442335 0.032087 0.247069 0.084490
48116 0.677201 -2.819325 9.459763 0.049536 0.224939 0.103669
48117 0.685013 -2.833150 9.394845 0.024978 0.215438 0.046425
48118 0.682959 -2.856373 9.385582 0.005030 0.221873 0.044043
48119 0.747849 -2.863498 9.363029 0.009817 0.163678 0.030463
48120 0.746703 -2.859931 9.391972 0.025639 0.179196 0.056650
48121 0.755239 -2.854080 9.391492 0.037546 0.181255 0.055070
48122 0.777964 -2.863144 9.365172 0.031629 0.162991 0.034716
48123 0.790804 -2.870280 9.312087 0.017970 0.150317 -0.012524
48124 0.798050 -2.889066 9.303305 0.004329 0.147842 -0.014712
48125 0.799124 -2.876509 9.290955 0.017992 0.156056 -0.030230
48126 0.816929 -2.901094 9.269032 -0.002334 0.140061 -0.042072
48127 0.818672 -2.916824 9.252172 -0.016518 0.141887 -0.053296
48128 0.836268 -2.940410 9.232218 -0.035374 0.126401 -0.063500
48129 0.812719 -2.942686 9.241937 -0.034931 0.159246 -0.056062
48130 0.811558 -2.922549 9.212180 -0.019563 0.167755 -0.090601
48131 0.825964 -2.954941 9.157844 -0.057148 0.148047 -0.130946
48132 0.848224 -2.961257 9.144629 -0.057227 0.131736 -0.139375
48133 0.856598 -2.979724 9.142470 -0.068414 0.128548 -0.135023
48134 0.868767 -2.970837 9.149397 -0.050951 0.127916 -0.129997
48135 0.898642 -2.981445 9.125052 -0.056523 0.101694 -0.146760
48136 0.905192 -3.013855 9.108989 -0.085212 0.095333 -0.151408
48137 0.919107 -3.019598 9.096113 -0.086552 0.087161 -0.160395
48138 0.910397 -3.012804 9.055555 -0.089048 0.098416 -0.201806
48139 0.918350 -3.020673 9.070044 -0.086282 0.100087 -0.184879
48140 0.935850 -3.028033 9.071804 -0.084345 0.090590 -0.179104
48141 0.960305 -3.035944 9.108610 -0.071649 0.080209 -0.139262
48142 0.974743 -3.025971 9.132496 -0.048029 0.080331 -0.118244
48143 0.972794 -3.029226 9.142899 -0.044349 0.091833 -0.107679
48144 0.997785 -3.047975 9.155191 -0.048502 0.074425 -0.087523
48145 1.002070 -3.034698 9.108331 -0.043853 0.072612 -0.135441
48146 1.000913 -3.049546 9.110535 -0.052997 0.079482 -0.128901
48147 1.015714 -3.040310 9.111018 -0.036708 0.074804 -0.129701
48148 1.009877 -3.045431 9.111134 -0.038629 0.087265 -0.128705
48149 1.045596 -3.038370 9.131982 -0.013421 0.065662 -0.107224
48150 1.056781 -3.056561 9.128066 -0.024678 0.058376 -0.103948
48151 1.036256 -3.064515 9.144197 -0.028178 0.087016 -0.088672
48152 1.059304 -3.063420 9.153661 -0.014747 0.074124 -0.077475
48153 1.051489 -3.053875 9.148261 -0.005134 0.089861 -0.086547
48154 1.067099 -3.080078 9.147243 -0.021629 0.076594 -0.077432
48155 1.077670 -3.101261 9.142879 -0.035809 0.068425 -0.073612
48156 1.055703 -3.062260 9.134680 -0.002928 0.102605 -0.096373
48157 1.064189 -3.059452 9.137695 0.006931 0.102303 -0.093486
48158 1.078657 -3.109996 9.155313 -0.027022 0.088423 -0.059143
48159 1.065703 -3.115412 9.164742 -0.028202 0.108278 -0.050169
48160 1.063446 -3.118087 9.162546 -0.027562 0.115783 -0.051712
48161 1.059381 -3.128177 9.169885 -0.031521 0.125633 -0.042148
48162 1.059088 -3.125914 9.145892 -0.031967 0.128040 -0.065510
48163 1.070812 -3.149580 9.143052 -0.047380 0.117652 -0.059191
48164 1.073560 -3.143307 9.142594 -0.036872 0.122588 -0.061364
48165 1.069900 -3.150962 9.126098 -0.045288 0.127535 -0.074888
48166 1.042697 -3.152880 9.132493 -0.047982 0.160709 -0.071716
48167 1.065369 -3.169031 9.121321 -0.056252 0.139640 -0.074216
48168 1.048648 -3.197326 9.114364 -0.084656 0.154748 -0.073734
48169 1.047295 -3.194927 9.087622 -0.086428 0.157463 -0.099817
48170 1.054234 -3.191476 9.091223 -0.076158 0.158318 -0.096749
48171 1.063700 -3.178377 9.076797 -0.061937 0.155496 -0.113407
48172 1.089957 -3.185422 9.074540 -0.058385 0.134618 -0.109952
48173 1.053558 -3.199944 9.088915 -0.073278 0.175735 -0.096474
48174 1.064798 -3.199917 9.111917 -0.060015 0.176070 -0.073595
48175 1.057177 -3.189802 9.105493 -0.050666 0.190379 -0.084001
48176 1.059384 -3.219900 9.120228 -0.069906 0.191311 -0.060152
48177 1.083053 -3.222250 9.096750 -0.068839 0.169827 -0.078357
48178 1.110040 -3.219356 9.098833 -0.054653 0.151762 -0.073932
48179 1.091548 -3.207723 9.099278 -0.045220 0.178496 -0.079865
48180 1.091269 -3.224260 9.121339 -0.050783 0.186346 -0.053931
48181 1.123823 -3.229540 9.105551 -0.047614 0.157532 -0.062737
48182 1.127918 -3.245788 9.085326 -0.063756 0.152383 -0.075787
48183 1.128033 -3.238730 9.084455 -0.054087 0.160327 -0.079014
48184 1.123518 -3.240469 9.089036 -0.052205 0.171710 -0.074856
48185 1.124690 -3.265813 9.075783 -0.075449 0.168768 -0.078725
48186 1.141472 -3.267112 9.102267 -0.060927 0.164934 -0.051405
48187 1.150713 -3.252422 9.116809 -0.037370 0.169132 -0.041588
48188 1.160715 -3.241010 9.141195 -0.013736 0.174150 -0.021412
48189 1.170057 -3.245594 9.167982 -0.004096 0.176674 0.006259
48190 1.186804 -3.269505 9.178716 -0.014701 0.164378 0.026465
48191 1.192617 -3.270082 9.179361 -0.009897 0.165635 0.027950
48192 1.182083 -3.254407 9.167976 0.001678 0.183095 0.010502
48193 1.203000 -3.263752 9.164757 0.001780 0.167069 0.013432
48194 1.225626 -3.300935 9.162630 -0.022865 0.143187 0.027040
48195 1.235578 -3.293667 9.162145 -0.009888 0.141509 0.025438
48196 1.229490 -3.263330 9.165530 0.020733 0.161311 0.017374
48197 1.235058 -3.292608 9.164891 -0.000820 0.155491 0.027377
48198 1.242330 -3.312715 9.143014 -0.019902 0.145444 0.014781
48199 1.256880 -3.320716 9.150507 -0.017062 0.137685 0.026445
48200 1.206717 -3.307044 9.152746 -0.014812 0.194989 0.016650
48201 1.212974 -3.314035 9.154734 -0.015080 0.193894 0.021660
48202 1.222053 -3.307090 9.166300 0.001051 0.195667 0.031216
48203 1.210702 -3.353449 9.150805 -0.045299 0.198172 0.030923
48204 1.230305 -3.356402 9.161247 -0.035492 0.187510 0.044344
48205 1.210098 -3.336280 9.178715 -0.014182 0.221295 0.050629
48206 1.178084 -3.315735 9.169590 -0.003901 0.260348 0.030320
48207 1.188304 -3.371081 9.142187 -0.055439 0.237672 0.025264
48208 1.195654 -3.366922 9.123078 -0.051282 0.233645 0.007047
48209 1.190626 -3.376238 9.125575 -0.056965 0.242951 0.011708
48210 1.175840 -3.341273 9.120401 -0.027358 0.270387 -0.007488
48211 1.200035 -3.374013 9.097489 -0.052884 0.241022 -0.013989
48212 1.200951 -3.412830 9.077087 -0.090487 0.232622 -0.019437
48213 1.219331 -3.421946 9.074038 -0.090550 0.219061 -0.016491
48214 1.191670 -3.397969 9.072081 -0.074181 0.257127 -0.030888
48215 1.213408 -3.406601 9.057876 -0.076214 0.238097 -0.037931
48216 1.247538 -3.417300 9.039861 -0.077506 0.206122 -0.045885
48217 1.262369 -3.447702 9.019220 -0.103546 0.187031 -0.052255
48218 1.262801 -3.421225 9.011039 -0.078621 0.198294 -0.069117
48219 1.273142 -3.406034 9.025380 -0.054402 0.203132 -0.059735
48220 1.303283 -3.405970 9.023296 -0.042585 0.181771 -0.057221
48221 1.359919 -3.448574 9.026955 -0.059677 0.126497 -0.030323
48222 1.333461 -3.451265 9.039747 -0.063463 0.161585 -0.021727
48223 1.364428 -3.431506 9.033443 -0.034832 0.143494 -0.029819
48224 1.376616 -3.426680 9.025989 -0.026050 0.138953 -0.036613
48225 1.412349 -3.451867 9.017365 -0.037180 0.104922 -0.030210
48226 1.435885 -3.452036 9.011235 -0.028662 0.089078 -0.032192
48227 1.421544 -3.443677 9.050513 -0.011333 0.122187 -0.001259
48228 1.435660 -3.421336 9.068537 0.021578 0.126591 0.009576
48229 1.448074 -3.452477 9.058876 -0.002561 0.112543 0.013584
48230 1.479140 -3.458217 9.065444 0.007248 0.091531 0.026526
48231 1.489750 -3.433508 9.062237 0.034879 0.094321 0.016402
48232 1.491641 -3.444425 9.079220 0.033545 0.101806 0.036136
48233 1.511238 -3.422143 9.074699 0.061661 0.095527 0.027092
48234 1.543037 -3.457959 9.061958 0.038983 0.061150 0.033210
48235 1.545125 -3.482044 9.044196 0.015937 0.055957 0.025768
48236 1.551922 -3.477969 9.055924 0.028674 0.060958 0.036148
48237 1.554865 -3.458580 9.035579 0.044333 0.065244 0.010916
48238 1.567294 -3.478737 9.013496 0.026939 0.050211 -0.000160
48239 1.584775 -3.489137 9.027200 0.030607 0.041988 0.018993
48240 1.554742 -3.506025 9.038836 0.012115 0.076214 0.030754
48241 1.569557 -3.482711 9.046226 0.043427 0.077336 0.031524
48242 1.595715 -3.505531 9.009301 0.024120 0.044627 0.010158
48243 1.592275 -3.501073 8.992704 0.025492 0.051560 -0.007295
