// General information: 
//  MT Manager version: 2020.0.2 
//  XDA version: 2020.0.2 build 5355 rev 106296 built on 2020-10-15
// Device information: 
//  DeviceId: 0080021020
//  ProductCode: MTi-680G-8A1G6
//  Firmware Version: 1.2.2
//  Hardware Version: 1.0.0
// Device settings: 
//  Filter Profile: General_RTK(24.1)
//  Option Flags: Orientation Smoother Enabled, Position/Velocity Smoother Enabled, Continuous Zero Rotation Update Enabled, AHS Disabled, ICC Disabled
// Coordinate system: ENU
// PacketCounter,SampleTimeFine,UTC_Nano,UTC_Year,UTC_Month,UTC_Day,UTC_Hour,UTC_Minute,UTC_Second,UTC_Valid,Acc_X,Acc_Y,Acc_Z,Gyr_X,Gyr_Y,Gyr_Z,Roll,Pitch,Yaw,Latitude,Longitude,Altitude,Vel_E,Vel_N,Vel_U
35290,11720814,769377415,2020,11,10,7,36,13,0,1.796955,0.275785,9.637408,0.010184,-0.013146,-0.053014,1.072301,-2.364847,130.308899,31.314225955,121.238808504,15.775801,-1.503537,1.336724,-0.002969
35291,11720914,779377415,2020,11,10,7,36,13,0,1.628713,0.273445,9.601238,0.002762,0.018645,-0.037178,1.076271,-2.363635,130.280457,31.314226074,121.238808358,15.775037,-1.511985,1.346240,-0.005051
35292,11721014,789377415,2020,11,10,7,36,13,0,1.491339,0.374185,9.821562,0.012054,-0.021407,-0.045151,1.082679,-2.361681,130.251709,31.314226193,121.238808210,15.774210,-1.517951,1.353235,-0.006305
35293,11721114,799377415,2020,11,10,7,36,13,0,1.655952,0.268946,9.512232,0.000032,-0.011910,-0.042586,1.084720,-2.376467,130.222504,31.314226313,121.238808062,15.773445,-1.525930,1.361545,-0.007869
35294,11721214,809377415,2020,11,10,7,36,13,0,1.705068,0.281105,9.782025,0.006532,-0.027454,-0.048740,1.089885,-2.382574,130.192062,31.314226434,121.238807913,15.772637,-1.532593,1.369995,-0.009920
35295,11721314,819377415,2020,11,10,7,36,13,0,1.794825,0.096173,9.692167,0.004690,0.000163,-0.042579,1.092541,-2.392548,130.161728,31.314226555,121.238807763,15.771856,-1.540350,1.381111,-0.011100
35296,11721414,829377415,2020,11,10,7,36,13,0,1.266012,0.253857,9.894700,0.018086,-0.005527,-0.050908,1.099696,-2.386282,130.129990,31.314226678,121.238807612,15.771069,-1.544959,1.388605,-0.011733
35297,11721514,839377415,2020,11,10,7,36,13,0,1.800650,0.443424,9.724390,0.008851,-0.032178,-0.045110,1.108607,-2.405302,130.095810,31.314226801,121.238807461,15.770175,-1.553275,1.396446,-0.011754
35298,11721614,849377415,2020,11,10,7,36,13,0,1.515382,0.335695,9.609677,0.012317,-0.009340,-0.048177,1.114415,-2.410687,130.065887,31.314226925,121.238807308,15.769314,-1.560366,1.404698,-0.014309
35299,11720617,749682415,2020,11,10,7,36,13,0,,,,,,,,,,,,,,,
35300,11720617,749682322,2020,11,10,7,36,13,0,,,,,,,,,,,,,,,
35301,11721714,859377322,2020,11,10,7,36,13,0,1.840696,0.441724,9.739516,0.003885,0.000610,-0.042817,1.121009,-2.414987,130.032379,31.314227049,121.238807154,15.768471,-1.569609,1.412927,-0.015161
35302,11721814,869377322,2020,11,10,7,36,13,0,1.459298,0.122500,9.858932,0.004495,0.003948,-0.041784,1.124068,-2.408645,129.997360,31.314227274,121.238806885,15.767769,-1.581755,1.428728,-0.015109
35303,11721914,879377322,2020,11,10,7,36,13,0,1.832244,0.301141,9.788699,0.016191,-0.014004,-0.047690,1.133452,-2.418514,129.958099,31.314227407,121.238806738,15.767469,-1.587555,1.439329,-0.014284
35304,11722014,889377322,2020,11,10,7,36,13,0,1.500455,0.214466,9.725387,0.017772,0.004236,-0.045967,1.142146,-2.414110,129.920349,31.314227541,121.238806591,15.767148,-1.592936,1.448902,-0.014929
35305,11722114,899377322,2020,11,10,7,36,13,0,1.867691,0.531993,9.794333,0.007311,-0.007667,-0.040299,1.152675,-2.421219,129.881592,31.314227676,121.238806443,15.766839,-1.601112,1.457818,-0.014098
35306,11722214,909377322,2020,11,10,7,36,13,0,1.411884,0.253608,9.732923,0.014708,0.025488,-0.047922,1.158551,-2.410249,129.846344,31.314227811,121.238806293,15.766544,-1.606611,1.467148,-0.014582
35307,11722314,919377322,2020,11,10,7,36,13,0,1.819988,0.390143,9.863791,0.012394,-0.026831,-0.046939,1.168971,-2.415878,129.807236,31.314227947,121.238806143,15.766199,-1.613336,1.475706,-0.012934
35308,11722414,929377322,2020,11,10,7,36,13,0,1.476186,0.214630,9.724975,0.008187,0.013988,-0.044391,1.176233,-2.415277,129.773560,31.314228083,121.238805992,15.765929,-1.619789,1.485272,-0.012970
35309,11722514,939377322,2020,11,10,7,36,13,0,1.793800,0.431001,9.861100,0.016264,-0.019805,-0.046185,1.187141,-2.420179,129.733932,31.314228221,121.238805841,15.765647,-1.626034,1.494226,-0.012158
35310,11722614,949377322,2020,11,10,7,36,13,0,1.510627,0.380564,9.825333,0.014127,0.011740,-0.040872,1.195216,-2.417748,129.699265,31.314228359,121.238805688,15.765348,-1.632898,1.503740,-0.011959
35311,11722714,959377322,2020,11,10,7,36,13,0,1.774354,0.416278,9.909369,0.012413,-0.028811,-0.048786,1.203701,-2.426416,129.662598,31.314228499,121.238805534,15.765099,-1.639396,1.512074,-0.010197
35312,11722814,969377322,2020,11,10,7,36,13,0,1.468657,0.211658,9.759794,0.006043,0.016748,-0.041664,1.209133,-2.425217,129.628372,31.314228638,121.238805380,15.764830,-1.646297,1.521735,-0.009878
35313,11722914,979377322,2020,11,10,7,36,13,0,1.702294,0.550806,9.878248,0.025209,-0.043833,-0.052501,1.221615,-2.434098,129.589310,31.314228779,121.238805225,15.764562,-1.651547,1.529641,-0.009516
35314,11723014,989377322,2020,11,10,7,36,13,0,1.779235,0.319412,9.632828,0.010713,0.013038,-0.038990,1.227164,-2.441388,129.555328,31.314228920,121.238805068,15.764284,-1.660592,1.540226,-0.009816
35315,11723114,999377322,2020,11,10,7,36,13,0,1.591466,0.487882,9.895364,0.000340,-0.008032,-0.047292,1.233818,-2.435461,129.520264,31.314229063,121.238804911,15.764085,-1.667437,1.548030,-0.008631
35316,11723214,9378322,2020,11,10,7,36,14,0,1.507957,0.345035,9.674053,0.009149,0.015997,-0.041214,1.239327,-2.435416,129.485367,31.314229205,121.238804753,15.763858,-1.673884,1.557072,-0.009633
35317,11723314,19378322,2020,11,10,7,36,14,0,1.790667,0.459476,9.832339,0.011567,-0.028136,-0.041991,1.246781,-2.440332,129.449585,31.314229349,121.238804594,15.763606,-1.680530,1.565696,-0.009152
35318,11723414,29378322,2020,11,10,7,36,14,0,1.712778,0.222108,9.559984,-0.000629,0.037945,-0.036246,1.248070,-2.436232,129.414185,31.314229493,121.238804434,15.763372,-1.689000,1.576782,-0.010187
35319,11723514,39378322,2020,11,10,7,36,14,0,1.319348,0.511524,9.982882,0.013871,-0.006042,-0.053056,1.256271,-2.418609,129.377930,31.314229638,121.238804273,15.763105,-1.692951,1.583396,-0.010030
35320,11723614,49378322,2020,11,10,7,36,14,0,1.868708,0.459602,9.564713,-0.002639,-0.005180,-0.039542,1.260380,-2.433280,129.342926,31.314229784,121.238804111,15.762906,-1.702348,1.592616,-0.010211
35321,11723714,59378322,2020,11,10,7,36,14,0,1.447867,0.262002,9.659121,0.010134,0.007545,-0.052005,1.263708,-2.421336,129.307770,31.314229931,121.238803949,15.762647,-1.707452,1.601899,-0.012202
35322,11723814,69378322,2020,11,10,7,36,14,0,1.797853,0.278771,9.548548,0.001527,0.006329,-0.042273,1.267701,-2.422997,129.270401,31.314230078,121.238803785,15.762463,-1.715039,1.612152,-0.013104
35323,11723914,79378322,2020,11,10,7,36,14,0,1.432752,0.362455,9.760785,0.008471,0.002251,-0.045358,1.273732,-2.414671,129.234436,31.314230226,121.238803620,15.762209,-1.720441,1.620925,-0.014150
35324,11724014,89378322,2020,11,10,7,36,14,0,1.738644,0.561038,9.504651,0.004836,0.012491,-0.042985,1.280295,-2.418592,129.194702,31.314230375,121.238803455,15.761957,-1.728596,1.630082,-0.015155
35325,11724114,99378322,2020,11,10,7,36,14,0,1.395267,0.331764,9.652569,0.013097,-0.010279,-0.047392,1.284071,-2.410441,129.159912,31.314230525,121.238803289,15.761735,-1.733952,1.637416,-0.017170
35326,11723117,999684322,2020,11,10,7,36,13,0,,,,,,,,,,,,,,,
35327,11723117,999682230,2020,11,10,7,36,13,0,,,,,,,,,,,,,,,
35328,11724214,109376230,2020,11,10,7,36,14,0,1.994541,0.431599,9.457813,-0.012152,-0.005247,-0.046095,1.286218,-2.425107,129.120041,31.314230675,121.238803121,15.761411,-1.743371,1.647257,-0.018468
35329,11724314,119376230,2020,11,10,7,36,14,0,1.187661,0.323629,9.583971,0.011659,0.034017,-0.050259,1.289667,-2.402996,129.086166,31.314230940,121.238802817,15.760885,-1.754457,1.664108,-0.025009
35330,11724414,129376230,2020,11,10,7,36,14,0,1.973470,0.475095,9.426388,0.005320,-0.030759,-0.041820,1.294849,-2.415345,129.048264,31.314231095,121.238802645,15.760612,-1.762699,1.673517,-0.026007
35331,11724514,139376230,2020,11,10,7,36,14,0,1.445720,0.207122,9.477011,0.005686,0.031198,-0.050543,1.296178,-2.403219,129.014496,31.314231250,121.238802471,15.760297,-1.769712,1.683440,-0.029550
35332,11724614,149376230,2020,11,10,7,36,14,0,1.821450,0.478531,9.538547,-0.002439,-0.002645,-0.049604,1.300276,-2.401862,128.974411,31.314231407,121.238802297,15.759963,-1.777918,1.692442,-0.030479
35333,11724714,159376230,2020,11,10,7,36,14,0,1.413486,0.446198,9.614092,0.002884,0.016078,-0.040352,1.303032,-2.393766,128.940659,31.314231564,121.238802122,15.759595,-1.785603,1.701666,-0.032510
35334,11724814,169376230,2020,11,10,7,36,14,0,1.793232,0.338566,9.489208,-0.008617,-0.016406,-0.048232,1.300777,-2.398667,128.901962,31.314231722,121.238801946,15.759196,-1.792980,1.710419,-0.033750
35335,11724914,179376230,2020,11,10,7,36,14,0,1.426099,0.175226,9.563732,-0.000848,0.013234,-0.042489,1.299938,-2.393052,128.868256,31.314231880,121.238801769,15.758843,-1.798789,1.720519,-0.036487
35336,11725014,189376230,2020,11,10,7,36,14,0,1.872995,0.404093,9.748444,-0.006880,-0.035448,-0.050470,1.301533,-2.406659,128.828995,31.314232040,121.238801592,15.758411,-1.805822,1.730256,-0.035899
35337,11725114,199376230,2020,11,10,7,36,14,0,1.197011,0.231265,9.826119,0.001723,0.026745,-0.049105,1.299284,-2.399294,128.792877,31.314232200,121.238801413,15.758012,-1.811245,1.739642,-0.036649
35338,11725214,209376230,2020,11,10,7,36,14,0,1.800308,0.499038,9.919426,-0.003862,-0.065325,-0.048733,1.301213,-2.419998,128.754089,31.314232361,121.238801234,15.757606,-1.817950,1.747075,-0.033772
35339,11725314,219376230,2020,11,10,7,36,14,0,1.506256,0.241032,9.728573,-0.004712,-0.001104,-0.046931,1.297951,-2.433460,128.718521,31.314232523,121.238801054,15.757222,-1.825273,1.757280,-0.033579
35340,11725414,229376230,2020,11,10,7,36,14,0,1.862481,0.376252,9.862497,-0.018720,-0.038926,-0.053869,1.295076,-2.448289,128.676361,31.314232685,121.238800873,15.756837,-1.832242,1.766636,-0.031187
35341,11725514,239376230,2020,11,10,7,36,14,0,1.401804,0.331625,10.049533,0.006213,0.001166,-0.053063,1.295688,-2.450639,128.641159,31.314232848,121.238800692,15.756453,-1.837985,1.776726,-0.030204
35342,11725614,249376230,2020,11,10,7,36,14,0,1.867786,0.465623,9.924479,-0.012195,-0.044890,-0.042489,1.293515,-2.470753,128.600815,31.314233012,121.238800509,15.756071,-1.846741,1.785326,-0.026054
35343,11725714,259376230,2020,11,10,7,36,14,0,1.385089,0.185435,9.923593,-0.003633,0.017449,-0.051558,1.288904,-2.466388,128.563080,31.314233177,121.238800326,15.755751,-1.852403,1.794813,-0.024744
35344,11725814,269376230,2020,11,10,7,36,14,0,1.850980,0.651708,10.019339,-0.016032,-0.028941,-0.053902,1.288354,-2.475843,128.522446,31.314233343,121.238800142,15.755473,-1.860937,1.802850,-0.020975
35345,11725914,279376230,2020,11,10,7,36,14,0,1.502627,0.437342,9.901425,0.003750,0.025801,-0.054240,1.285259,-2.472572,128.484390,31.314233509,121.238799956,15.755150,-1.868174,1.812087,-0.020051
35346,11726014,289376230,2020,11,10,7,36,14,0,1.826261,0.378103,9.934003,-0.016397,-0.012279,-0.046395,1.278411,-2.470454,128.444839,31.314233676,121.238799770,15.754902,-1.876497,1.820850,-0.016534
35347,11726114,299376230,2020,11,10,7,36,14,0,1.568757,0.296925,10.065495,-0.014164,0.030208,-0.053987,1.274143,-2.459635,128.407181,31.314233843,121.238799583,15.754698,-1.883476,1.830579,-0.014008
35348,11726214,309376230,2020,11,10,7,36,14,0,1.797439,0.385318,9.937175,-0.015366,-0.017537,-0.055234,1.269171,-2.460861,128.365616,31.314234012,121.238799396,15.754471,-1.891181,1.839853,-0.010635
35349,11726314,319376230,2020,11,10,7,36,14,0,1.579779,0.391001,9.922118,0.004787,0.024099,-0.052945,1.268414,-2.454123,128.327789,31.314234181,121.238799207,15.754239,-1.897523,1.850143,-0.010062
35350,11726414,329376230,2020,11,10,7,36,14,0,2.018002,0.559644,9.714993,-0.010706,-0.029902,-0.057065,1.266992,-2.463067,128.285919,31.314234352,121.238799017,15.754010,-1.907452,1.859521,-0.007748
35351,11726514,339376230,2020,11,10,7,36,14,0,1.475167,0.159522,9.755811,-0.006875,0.040246,-0.050949,1.260913,-2.450012,128.250320,31.314234523,121.238798826,15.753797,-1.914898,1.869913,-0.008784
35352,11726614,349376230,2020,11,10,7,36,14,0,2.021288,0.566639,9.900764,-0.020020,-0.033322,-0.044096,1.259068,-2.456205,128.211136,31.314234694,121.238798635,15.753647,-1.924326,1.879533,-0.005813
35353,11725617,249682230,2020,11,10,7,36,14,0,,,,,,,,,,,,,,,
35354,11725617,249682136,2020,11,10,7,36,14,0,,,,,,,,,,,,,,,
35355,11726714,359376136,2020,11,10,7,36,14,0,1.281364,-0.139179,9.627088,-0.003815,0.040101,-0.053994,1.250626,-2.445577,128.174957,31.314234867,121.238798442,15.753492,-1.928766,1.891040,-0.007500
35356,11726814,369376136,2020,11,10,7,36,14,0,2.039238,0.273509,9.651568,-0.005050,-0.046857,-0.055750,1.251206,-2.455787,128.126785,31.314235173,121.238798102,15.753287,-1.936443,1.909443,-0.007349
35357,11726914,379376136,2020,11,10,7,36,14,0,1.559890,0.255142,9.563210,-0.001781,0.036857,-0.056423,1.250798,-2.449916,128.084564,31.314235355,121.238797911,15.753125,-1.943505,1.922584,-0.009590
35358,11727014,389376136,2020,11,10,7,36,14,0,1.766781,0.573987,9.672573,-0.014564,-0.004195,-0.051430,1.249512,-2.443814,128.038544,31.314235538,121.238797720,15.752967,-1.952407,1.931824,-0.009496
35359,11727114,399376136,2020,11,10,7,36,14,0,1.496902,0.447852,9.803638,-0.005852,0.013518,-0.052674,1.246403,-2.433701,127.996941,31.314235721,121.238797527,15.752778,-1.959382,1.942304,-0.010405
35360,11727214,409376136,2020,11,10,7,36,14,0,1.889708,0.108993,9.331113,-0.017202,-0.014935,-0.047049,1.238729,-2.446628,127.953407,31.314235905,121.238797334,15.752598,-1.967177,1.954339,-0.011750
35361,11727314,419376136,2020,11,10,7,36,14,0,1.525853,0.113399,9.723597,0.000191,0.020031,-0.056972,1.236049,-2.429975,127.909081,31.314236091,121.238797140,15.752409,-1.971110,1.967168,-0.014214
35362,11727414,429376136,2020,11,10,7,36,14,0,1.911651,0.156239,9.552484,-0.015010,-0.025181,-0.045834,1.232458,-2.443841,127.864410,31.314236277,121.238796945,15.752219,-1.978516,1.979926,-0.014313
35363,11727514,439376136,2020,11,10,7,36,14,0,1.509466,0.539153,9.725685,-0.002998,0.010083,-0.055411,1.233458,-2.438559,127.819916,31.314236464,121.238796749,15.752061,-1.985042,1.991061,-0.015577
35364,11727614,449376136,2020,11,10,7,36,14,0,1.703072,0.376792,9.429963,-0.004819,-0.027202,-0.047977,1.229376,-2.450233,127.776283,31.314236652,121.238796553,15.751842,-1.992834,2.000833,-0.017426
35365,11727714,459376136,2020,11,10,7,36,14,0,1.909084,0.370840,9.533489,-0.016873,-0.025758,-0.050128,1.223203,-2.461563,127.733719,31.314236840,121.238796355,15.751607,-2.001071,2.012441,-0.019147
35366,11727814,469376136,2020,11,10,7,36,14,0,1.558732,0.100924,9.599597,-0.025877,0.018480,-0.043547,1.213277,-2.462763,127.694176,31.314237030,121.238796157,15.751357,-2.008298,2.024680,-0.020978
35367,11727914,479376136,2020,11,10,7,36,14,0,1.592098,0.351876,9.801733,-0.006482,-0.034349,-0.050484,1.208232,-2.464619,127.650581,31.314237221,121.238795958,15.751109,-2.012153,2.035352,-0.021096
35368,11728014,489376136,2020,11,10,7,36,14,0,1.790606,-0.005250,9.673460,0.001078,-0.025049,-0.046290,1.203706,-2.487221,127.610817,31.314237412,121.238795758,15.750867,-2.018116,2.048159,-0.021660
35369,11728114,499376136,2020,11,10,7,36,14,0,1.790272,0.315796,9.712709,-0.032163,-0.007927,-0.048915,1.197064,-2.491393,127.564659,31.314237605,121.238795557,15.750621,-2.026032,2.059423,-0.020306
35370,11728214,509376136,2020,11,10,7,36,14,0,1.535596,0.466169,9.940063,0.006884,-0.013506,-0.051872,1.197392,-2.495959,127.522163,31.314237798,121.238795356,15.750323,-2.030977,2.070456,-0.020910
35371,11728314,519376136,2020,11,10,7,36,14,0,1.825487,0.383098,9.606987,-0.015415,-0.033274,-0.051391,1.191181,-2.513031,127.480072,31.314237992,121.238795153,15.750071,-2.038932,2.080669,-0.020344
35372,11728414,529376136,2020,11,10,7,36,14,0,1.813236,0.182811,9.875584,-0.013539,0.009174,-0.045681,1.184350,-2.515898,127.438492,31.314238187,121.238794950,15.749843,-2.047013,2.093078,-0.019859
35373,11728514,539376136,2020,11,10,7,36,14,0,1.722109,0.283374,10.026882,-0.018923,-0.003543,-0.041410,1.177821,-2.515161,127.395668,31.314238383,121.238794746,15.749597,-2.053906,2.104738,-0.017291
35374,11728614,549376136,2020,11,10,7,36,14,0,1.376402,0.186706,9.982712,-0.003836,-0.005467,-0.062694,1.173517,-2.513877,127.353622,31.314238580,121.238794541,15.749438,-2.057226,2.115565,-0.015121
35375,11728714,559376136,2020,11,10,7,36,14,0,2.071943,0.222065,9.540598,-0.000113,-0.042781,-0.051546,1.169941,-2.534545,127.304794,31.314238777,121.238794336,15.749269,-2.064212,2.127851,-0.014708
35376,11728814,569376136,2020,11,10,7,36,14,0,1.637158,0.803232,9.890802,-0.022092,0.025801,-0.057571,1.169524,-2.530023,127.259895,31.314238976,121.238794129,15.749053,-2.074498,2.138196,-0.014265
35377,11728914,579376136,2020,11,10,7,36,14,0,1.735562,0.680045,9.849818,-0.015736,0.012169,-0.051649,1.159044,-2.523904,127.214706,31.314239175,121.238793922,15.748908,-2.084083,2.147084,-0.013893
35378,11729014,589376136,2020,11,10,7,36,14,0,1.618769,0.430489,10.174134,-0.025034,-0.005767,-0.045553,1.147028,-2.517570,127.173248,31.314239375,121.238793713,15.748768,-2.092158,2.156681,-0.009569
35379,11729114,599376136,2020,11,10,7,36,14,0,1.812990,-0.238703,9.840693,-0.029470,-0.008924,-0.044516,1.130504,-2.529093,127.132843,31.314239576,121.238793503,15.748641,-2.098126,2.169141,-0.007003
35380,11728117,499682136,2020,11,10,7,36,14,0,,,,,,,,,,,,,,,
35381,11728117,499682043,2020,11,10,7,36,14,0,,,,,,,,,,,,,,,
35382,11729214,609376043,2020,11,10,7,36,14,0,1.676347,0.043881,9.798797,-0.018819,-0.004253,-0.055918,1.123555,-2.525646,127.084221,31.314239778,121.238793293,15.748471,-2.101485,2.182437,-0.006418
35383,11729314,619376043,2020,11,10,7,36,14,0,1.993622,0.418507,9.801167,0.013290,-0.017770,-0.061274,1.124566,-2.538972,127.051628,31.314240123,121.238792914,15.748516,-2.113299,2.204874,-0.006693
35384,11729414,629376043,2020,11,10,7,36,14,0,1.816154,0.496551,9.569344,-0.020884,0.017256,-0.051503,1.117325,-2.533472,127.019066,31.314240318,121.238792693,15.748709,-2.125665,2.213594,-0.005803
35385,11729514,639376043,2020,11,10,7,36,14,0,1.697885,0.698130,10.065845,-0.010787,0.007395,-0.051031,1.115631,-2.522186,126.989517,31.314240515,121.238792472,15.748887,-2.136042,2.221419,-0.004791
35386,11729614,649377043,2020,11,10,7,36,14,0,2.048204,0.039605,9.571065,-0.022060,-0.021069,-0.052592,1.101046,-2.531543,126.958344,31.314240712,121.238792249,15.749080,-2.145121,2.232524,-0.003748
35387,11729714,659377043,2020,11,10,7,36,14,0,1.737650,-0.416821,9.820593,-0.012721,0.033397,-0.062266,1.092573,-2.520666,126.927185,31.314240910,121.238792026,15.749297,-2.150048,2.247406,-0.003768
35388,11729814,669377043,2020,11,10,7,36,14,0,1.854704,-0.495949,9.704829,0.007618,-0.001782,-0.059761,1.092118,-2.511960,126.891693,31.314241109,121.238791802,15.749520,-2.152553,2.261489,-0.003619
35389,11729914,679377043,2020,11,10,7,36,14,0,2.014189,0.454925,9.988276,0.014412,0.001592,-0.065598,1.105755,-2.513130,126.852203,31.314241310,121.238791578,15.749715,-2.161023,2.274818,-0.000938
35390,11730014,689377043,2020,11,10,7,36,14,0,1.882179,0.632736,9.611043,0.017975,0.012977,-0.054544,1.113341,-2.507479,126.818146,31.314241512,121.238791353,15.749933,-2.172855,2.284865,-0.001094
35391,11730114,699377043,2020,11,10,7,36,14,0,1.879574,0.683164,9.567648,-0.018689,-0.015533,-0.049295,1.114159,-2.504796,126.786415,31.314241714,121.238791127,15.750157,-2.185685,2.292548,-0.001170
35392,11730214,709377043,2020,11,10,7,36,14,0,2.298450,-0.037772,9.370077,-0.000335,0.006350,-0.054111,1.108568,-2.510877,126.758942,31.314241918,121.238790899,15.750382,-2.195134,2.307321,-0.004809
35393,11730314,719377043,2020,11,10,7,36,14,0,1.876602,-0.486316,9.632558,-0.012018,0.027328,-0.058730,1.102471,-2.491575,126.724709,31.314242123,121.238790670,15.750562,-2.201479,2.322632,-0.005608
35394,11730414,729377043,2020,11,10,7,36,14,0,2.158928,-0.031928,9.906615,0.017341,-0.006545,-0.061068,1.111948,-2.491495,126.688072,31.314242329,121.238790442,15.750670,-2.207429,2.338823,-0.004967
35395,11730514,739377043,2020,11,10,7,36,14,0,2.001854,0.160650,9.363806,0.022731,-0.010122,-0.065981,1.121680,-2.493485,126.651123,31.314242537,121.238790212,15.750852,-2.215420,2.352169,-0.006071
35396,11730614,749377043,2020,11,10,7,36,14,0,2.295956,0.888242,9.529442,0.002783,-0.008339,-0.053094,1.135055,-2.499105,126.613571,31.314242746,121.238789981,15.750943,-2.230568,2.363803,-0.007875
35397,11730714,759377043,2020,11,10,7,36,14,0,2.264993,0.374169,9.394899,0.000446,-0.001609,-0.047860,1.133651,-2.497213,126.587395,31.314242956,121.238789748,15.751057,-2.243377,2.376513,-0.011041
35398,11730814,769377043,2020,11,10,7,36,14,0,1.973151,-0.198197,9.534456,-0.014648,0.026005,-0.046656,1.127282,-2.485828,126.559402,31.314243167,121.238789515,15.751126,-2.252785,2.390303,-0.013168
35399,11730914,779377043,2020,11,10,7,36,14,0,2.425846,-0.006834,9.763920,0.003498,-0.029629,-0.050293,1.130732,-2.491905,126.528488,31.314243380,121.238789280,15.751206,-2.260575,2.407084,-0.012336
35400,11731014,789377043,2020,11,10,7,36,14,0,2.307542,-0.289958,9.482328,0.022218,-0.008324,-0.066927,1.133857,-2.499694,126.494255,31.314243594,121.238789045,15.751320,-2.267858,2.425246,-0.013536
35401,11731114,799377043,2020,11,10,7,36,14,0,2.190271,0.506248,9.493373,0.011700,0.002403,-0.056382,1.147320,-2.501902,126.457993,31.314243810,121.238788809,15.751379,-2.279734,2.439376,-0.015098
35402,11731214,809377043,2020,11,10,7,36,14,0,2.346080,0.927519,9.710786,0.016970,-0.018214,-0.059722,1.157313,-2.506099,126.422707,31.314244026,121.238788571,15.751392,-2.294134,2.451362,-0.016192
35403,11731314,819377043,2020,11,10,7,36,14,0,2.209830,0.318622,9.566026,-0.013423,0.016161,-0.053604,1.151383,-2.505539,126.394005,31.314244244,121.238788332,15.751433,-2.308733,2.463816,-0.016678
35404,11731414,829377043,2020,11,10,7,36,14,0,2.250753,0.236494,9.918687,-0.027302,-0.011972,-0.040929,1.146321,-2.504596,126.364021,31.314244463,121.238788092,15.751479,-2.321092,2.477090,-0.014268
35405,11731514,839377043,2020,11,10,7,36,14,0,2.524048,-0.054661,9.803351,0.011913,-0.029047,-0.064649,1.144541,-2.517214,126.332230,31.314244684,121.238787850,15.751499,-2.329065,2.494913,-0.014506
35406,11731614,849377043,2020,11,10,7,36,14,0,2.635758,0.077853,9.484357,0.010047,-0.015187,-0.052072,1.149333,-2.533282,126.298492,31.314244906,121.238787608,15.751554,-2.341570,2.513705,-0.014261
35407,11730617,749682043,2020,11,10,7,36,14,0,,,,,,,,,,,,,,,
35408,11730617,749681950,2020,11,10,7,36,14,0,,,,,,,,,,,,,,,
35409,11731714,859376950,2020,11,10,7,36,14,0,2.326130,0.751374,9.883964,0.000801,0.006270,-0.057681,1.157622,-2.528965,126.260826,31.314245129,121.238787364,15.751573,-2.356468,2.527502,-0.013384
35410,11731814,869376950,2020,11,10,7,36,14,0,2.165819,0.893708,9.795893,0.016741,0.000333,-0.059979,1.163617,-2.529074,126.231407,31.314245467,121.238786991,15.751547,-2.378367,2.544120,-0.012178
35411,11731914,879376950,2020,11,10,7,36,14,0,2.423877,0.445425,9.718616,-0.010784,-0.040087,-0.045073,1.158988,-2.542391,126.201820,31.314245692,121.238786740,15.751648,-2.393583,2.555635,-0.009738
35412,11732014,889376950,2020,11,10,7,36,14,0,2.575613,0.121482,9.700197,-0.014822,-0.001706,-0.057036,1.154665,-2.550447,126.171150,31.314245919,121.238786488,15.751744,-2.406177,2.571775,-0.009912
35413,11732114,899376950,2020,11,10,7,36,14,0,2.585338,0.282672,9.785980,0.024555,-0.001927,-0.069831,1.161197,-2.552057,126.138977,31.314246146,121.238786234,15.751813,-2.417143,2.589443,-0.009719
35414,11732214,909376950,2020,11,10,7,36,14,0,2.327786,0.177071,9.629875,0.009643,-0.006434,-0.058092,1.165235,-2.552562,126.106491,31.314246376,121.238785979,15.751924,-2.429902,2.604420,-0.007935
35415,11732314,919376950,2020,11,10,7,36,14,0,2.254502,0.815114,9.889042,0.008465,-0.003198,-0.065996,1.178319,-2.550277,126.071251,31.314246606,121.238785723,15.751991,-2.444221,2.616264,-0.006735
35416,11732414,929376950,2020,11,10,7,36,14,0,2.553264,0.822208,9.753366,0.015982,-0.025396,-0.061783,1.186493,-2.561665,126.038162,31.314246838,121.238785465,15.752103,-2.459639,2.628736,-0.006428
35417,11732514,939376950,2020,11,10,7,36,14,0,2.737802,0.209545,9.625244,-0.005096,-0.003870,-0.052634,1.184593,-2.567417,126.004906,31.314247071,121.238785206,15.752261,-2.475855,2.644741,-0.005437
35418,11732614,949376950,2020,11,10,7,36,14,0,2.430103,0.168397,9.759118,0.007016,0.028189,-0.070296,1.188924,-2.556670,125.970024,31.314247306,121.238784945,15.752405,-2.487264,2.662023,-0.005660
35419,11732714,959376950,2020,11,10,7,36,14,0,2.455743,0.417024,9.696527,0.030804,-0.018878,-0.065719,1.201920,-2.559399,125.936684,31.314247542,121.238784683,15.752516,-2.498732,2.677781,-0.004794
35420,11732814,969376950,2020,11,10,7,36,14,0,2.466112,0.471299,9.352188,0.003400,-0.010177,-0.055683,1.208353,-2.565128,125.902176,31.314247779,121.238784420,15.752671,-2.514350,2.691427,-0.005278
35421,11732914,979376950,2020,11,10,7,36,14,0,2.472832,1.178841,9.663110,0.001358,0.005344,-0.068644,1.219315,-2.563108,125.865242,31.314248018,121.238784155,15.752764,-2.531613,2.703406,-0.007190
35422,11733014,989376950,2020,11,10,7,36,14,0,2.474405,0.599018,9.370175,-0.001995,0.009573,-0.056200,1.214754,-2.565044,125.834465,31.314248258,121.238783888,15.752869,-2.548478,2.717357,-0.008982
35423,11733114,999376950,2020,11,10,7,36,14,0,2.523946,0.289944,9.598014,-0.019670,-0.006537,-0.052623,1.205604,-2.554351,125.800255,31.314248499,121.238783619,15.752930,-2.562302,2.730918,-0.009328
35424,11733214,9376950,2020,11,10,7,36,15,0,2.485834,0.549327,9.796838,-0.017686,0.008226,-0.071390,1.203461,-2.555490,125.764305,31.314248741,121.238783349,15.752975,-2.575699,2.746555,-0.009668
35425,11733314,19376950,2020,11,10,7,36,15,0,2.295931,0.449852,9.446676,0.007574,-0.009693,-0.069274,1.200794,-2.561100,125.733551,31.314248985,121.238783078,15.753011,-2.588264,2.761569,-0.010654
35426,11733414,29376950,2020,11,10,7,36,15,0,2.555406,0.731266,9.500726,0.001436,-0.024609,-0.052629,1.198530,-2.562952,125.698212,31.314249230,121.238782805,15.753069,-2.604112,2.773991,-0.011686
35427,11733514,39376950,2020,11,10,7,36,15,0,2.294865,1.008036,9.624596,-0.045981,0.003845,-0.051977,1.190886,-2.566887,125.668053,31.314249476,121.238782531,15.753114,-2.623415,2.784123,-0.012191
35428,11733614,49376950,2020,11,10,7,36,15,0,2.494879,0.671494,9.717679,-0.025336,-0.010735,-0.058471,1.175756,-2.573593,125.639610,31.314249723,121.238782254,15.753150,-2.638362,2.798293,-0.012639
35429,11733714,59376950,2020,11,10,7,36,15,0,2.558868,-0.365173,9.663359,-0.016497,-0.025208,-0.056824,1.152680,-2.575748,125.609695,31.314249972,121.238781977,15.753216,-2.647914,2.816010,-0.012511
35430,11733814,69376950,2020,11,10,7,36,15,0,2.391481,-0.037659,9.729646,-0.027923,0.000227,-0.059569,1.144578,-2.583586,125.576241,31.314250222,121.238781698,15.753278,-2.658582,2.832959,-0.010986
35431,11733914,79376950,2020,11,10,7,36,15,0,2.434509,1.114408,9.820567,0.011193,-0.008801,-0.063145,1.150532,-2.590552,125.540901,31.314250474,121.238781418,15.753323,-2.672170,2.848225,-0.010229
35432,11734014,89376950,2020,11,10,7,36,15,0,2.582012,0.748318,9.688924,-0.014615,-0.030307,-0.042760,1.138421,-2.596417,125.512558,31.314250727,121.238781136,15.753426,-2.690088,2.859730,-0.008437
35433,11734114,99376950,2020,11,10,7,36,15,0,2.480308,0.486772,9.722726,-0.052822,0.011464,-0.052020,1.119800,-2.598049,125.483772,31.314250981,121.238780853,15.753533,-2.707320,2.872158,-0.007768
35434,11733117,999682950,2020,11,10,7,36,14,0,,,,,,,,,,,,,,,
35435,11733117,999681858,2020,11,10,7,36,14,0,,,,,,,,,,,,,,,
35436,11734214,109375858,2020,11,10,7,36,15,0,2.557065,0.297277,9.878068,-0.035582,0.003964,-0.058049,1.102430,-2.598177,125.455238,31.314251237,121.238780568,15.753583,-2.719837,2.889348,-0.006246
35437,11734314,119375858,2020,11,10,7,36,15,0,2.614378,-0.512512,9.844707,-0.005727,-0.002800,-0.056976,1.084153,-2.596215,125.423119,31.314251685,121.238780074,15.753372,-2.735175,2.922665,-0.003055
35438,11734414,129375858,2020,11,10,7,36,15,0,2.452007,0.014835,9.813651,-0.014107,-0.002638,-0.065142,1.079855,-2.591905,125.384270,31.314251940,121.238779795,15.753054,-2.744408,2.938590,-0.001707
35439,11734514,139375858,2020,11,10,7,36,15,0,2.271735,1.278285,9.819672,-0.009714,0.010666,-0.063603,1.087320,-2.596045,125.348564,31.314252195,121.238779515,15.752792,-2.760228,2.950730,-0.001676
35440,11734614,149375858,2020,11,10,7,36,15,0,2.739908,1.277812,9.504731,-0.001606,-0.013581,-0.048421,1.079217,-2.601194,125.317619,31.314252452,121.238779233,15.752523,-2.778677,2.962324,-0.003383
35441,11734714,159375858,2020,11,10,7,36,15,0,2.595279,0.125400,9.570033,-0.050767,0.009570,-0.038925,1.053716,-2.592433,125.289169,31.314252710,121.238778949,15.752221,-2.795222,2.974678,-0.003770
35442,11734814,169375858,2020,11,10,7,36,15,0,2.417820,0.090504,9.872800,-0.040242,0.007416,-0.061741,1.037777,-2.588714,125.257927,31.314252969,121.238778663,15.751886,-2.805264,2.990289,-0.003938
35443,11734914,179375858,2020,11,10,7,36,15,0,2.419083,0.268329,9.805790,0.002668,-0.009094,-0.058229,1.032278,-2.596712,125.227036,31.314253230,121.238778377,15.751570,-2.814805,3.008659,-0.003281
35444,11735014,189375858,2020,11,10,7,36,15,0,2.853556,0.219673,9.583952,0.012175,-0.038955,-0.058499,1.027563,-2.608046,125.191452,31.314253493,121.238778089,15.751277,-2.826667,3.025130,-0.003305
35445,11735114,199375858,2020,11,10,7,36,15,0,2.532759,0.754138,9.484807,-0.033659,-0.007641,-0.050111,1.023843,-2.617093,125.156822,31.314253757,121.238777800,15.750996,-2.844414,3.037291,-0.003862
35446,11735214,209375858,2020,11,10,7,36,15,0,2.327809,1.137982,9.710960,-0.036459,-0.008848,-0.055587,1.016821,-2.624902,125.127411,31.314254022,121.238777508,15.750697,-2.861213,3.048391,-0.006096
35447,11735314,219375858,2020,11,10,7,36,15,0,2.717841,0.227085,9.668883,-0.017102,-0.021298,-0.045492,0.997497,-2.637212,125.103004,31.314254288,121.238777215,15.750385,-2.874815,3.065195,-0.006888
35448,11735414,229375858,2020,11,10,7,36,15,0,2.623465,-0.514550,9.704095,-0.025222,-0.012335,-0.046855,0.975206,-2.636916,125.072525,31.314254556,121.238776921,15.750058,-2.884112,3.082860,-0.006752
35449,11735514,239375858,2020,11,10,7,36,15,0,2.363780,0.252238,9.867765,-0.032768,-0.007410,-0.058672,0.970307,-2.643823,125.037720,31.314254825,121.238776626,15.749807,-2.894265,3.098552,-0.005523
35450,11735614,249375858,2020,11,10,7,36,15,0,2.722327,0.834550,9.785193,0.005830,-0.030570,-0.065053,0.969916,-2.664839,125.004387,31.314255096,121.238776330,15.749473,-2.907352,3.115836,-0.005659
35451,11735714,259375858,2020,11,10,7,36,15,0,2.551185,0.256912,9.483926,-0.002418,0.006167,-0.052685,0.956161,-2.664125,124.973518,31.314255369,121.238776031,15.749163,-2.921907,3.131092,-0.006603
35452,11735814,269375858,2020,11,10,7,36,15,0,2.561117,0.389062,9.922503,-0.051129,-0.019024,-0.043336,0.941779,-2.658116,124.938995,31.314255643,121.238775732,15.748872,-2.936675,3.142408,-0.005196
35453,11735914,279375858,2020,11,10,7,36,15,0,2.805222,0.207552,10.010454,-0.040153,-0.016966,-0.059547,0.928697,-2.677213,124.910896,31.314255918,121.238775431,15.748640,-2.948956,3.160743,-0.003141
35454,11736014,289375858,2020,11,10,7,36,15,0,2.641604,0.162457,9.794209,0.009056,0.010859,-0.056392,0.919865,-2.681618,124.879303,31.314256195,121.238775128,15.748393,-2.959999,3.181777,-0.002217
35455,11736114,299375858,2020,11,10,7,36,15,0,2.576547,0.191052,9.689715,0.006925,-0.028673,-0.045455,0.915506,-2.680557,124.845398,31.314256474,121.238774825,15.748169,-2.971144,3.196662,-0.000899
35456,11736214,309375858,2020,11,10,7,36,15,0,2.745991,0.563437,9.616817,-0.018023,-0.040036,-0.053565,0.914507,-2.700024,124.813591,31.314256754,121.238774520,15.747966,-2.986540,3.209727,-0.000868
35457,11736314,319375858,2020,11,10,7,36,15,0,2.600794,1.021828,9.769241,-0.039485,0.020028,-0.058793,0.910998,-2.704518,124.782745,31.314257036,121.238774213,15.747799,-3.005337,3.223712,-0.001232
35458,11736414,329375858,2020,11,10,7,36,15,0,2.436476,0.351838,9.854646,0.003669,0.007593,-0.052229,0.900506,-2.695467,124.754501,31.314257319,121.238773905,15.747637,-3.017518,3.239338,-0.001719
35459,11736514,339375858,2020,11,10,7,36,15,0,2.899767,-0.407440,9.470720,-0.005755,-0.029379,-0.044167,0.888746,-2.705940,124.724586,31.314257603,121.238773595,15.747443,-3.028213,3.257543,-0.001665
35460,11736614,349375858,2020,11,10,7,36,15,0,2.808259,0.031892,9.649821,-0.005066,0.002862,-0.057010,0.893395,-2.707010,124.690407,31.314257889,121.238773284,15.747163,-3.039768,3.276360,-0.002689
35461,11735617,249681858,2020,11,10,7,36,15,0,,,,,,,,,,,,,,,
35462,11735617,249681764,2020,11,10,7,36,15,0,,,,,,,,,,,,,,,
35463,11736714,359375764,2020,11,10,7,36,15,0,2.540632,0.826538,9.701266,0.008998,0.012638,-0.061411,0.904329,-2.704192,124.657936,31.314258177,121.238772971,15.746934,-3.054000,3.292424,-0.004152
35464,11736814,369375764,2020,11,10,7,36,15,0,2.595717,0.664813,9.622811,0.013953,-0.000136,-0.041091,0.909545,-2.704762,124.627251,31.314258686,121.238772425,15.746519,-3.081008,3.318423,-0.005202
35465,11736914,379375764,2020,11,10,7,36,15,0,2.900512,0.220415,9.483023,0.003482,-0.010304,-0.040805,0.906587,-2.707722,124.593140,31.314258978,121.238772119,15.746081,-3.094340,3.335152,-0.007032
35466,11737014,389375764,2020,11,10,7,36,15,0,2.701940,-0.113388,9.638090,-0.016941,-0.000067,-0.043352,0.904414,-2.703779,124.560890,31.314259271,121.238771811,15.745630,-3.105126,3.352934,-0.008095
35467,11737114,399375764,2020,11,10,7,36,15,0,2.700089,-0.173916,9.750756,0.000609,-0.005777,-0.055869,0.908104,-2.709191,124.526794,31.314259566,121.238771503,15.745205,-3.113262,3.373057,-0.008908
35468,11737214,409375764,2020,11,10,7,36,15,0,2.671934,0.524086,9.809530,0.029365,0.004032,-0.051914,0.921977,-2.710829,124.489418,31.314259862,121.238771193,15.744748,-3.123668,3.392493,-0.009313
35469,11737314,419375764,2020,11,10,7,36,15,0,2.637927,0.392545,9.393167,0.020076,-0.018705,-0.042565,0.928553,-2.719363,124.456337,31.314260161,121.238770882,15.744298,-3.136316,3.408619,-0.010186
35470,11737414,429375764,2020,11,10,7,36,15,0,2.817756,0.349269,9.246909,-0.004558,-0.029495,-0.036663,0.931926,-2.730858,124.424179,31.314260460,121.238770569,15.743866,-3.150683,3.423822,-0.013306
35471,11737514,439375764,2020,11,10,7,36,15,0,2.994792,0.613571,9.542653,-0.027016,-0.012356,-0.041611,0.933095,-2.738715,124.392639,31.314260761,121.238770254,15.743422,-3.166682,3.440837,-0.016476
35472,11737614,449375764,2020,11,10,7,36,15,0,2.750227,0.164031,9.644227,0.002878,0.025121,-0.041810,0.930536,-2.736508,124.364906,31.314261064,121.238769938,15.742949,-3.178300,3.461249,-0.019266
35473,11737714,459375764,2020,11,10,7,36,15,0,2.340756,-0.023466,9.610698,0.028483,0.015608,-0.053196,0.933300,-2.723172,124.332886,31.314261369,121.238769621,15.742475,-3.185379,3.479199,-0.020760
35474,11737814,469375764,2020,11,10,7,36,15,0,2.869412,0.501662,9.391098,0.015461,-0.043276,-0.033291,0.944217,-2.740412,124.298828,31.314261675,121.238769302,15.741939,-3.198750,3.494878,-0.021327
35475,11737914,479375764,2020,11,10,7,36,15,0,3.060726,0.639271,9.376550,0.004355,-0.023979,-0.036412,0.952384,-2.753221,124.266823,31.314261982,121.238768982,15.741390,-3.214728,3.511698,-0.024133
35476,11738014,489375764,2020,11,10,7,36,15,0,2.911733,0.693309,9.750259,-0.007211,0.016396,-0.045386,0.954716,-2.749145,124.237411,31.314262292,121.238768660,15.740838,-3.231088,3.528666,-0.026016
35477,11738114,499375764,2020,11,10,7,36,15,0,2.480237,0.589602,10.015800,0.008776,0.010341,-0.040288,0.956790,-2.741947,124.210434,31.314262602,121.238768336,15.740328,-3.244193,3.544660,-0.024857
35478,11738214,509375764,2020,11,10,7,36,15,0,2.524389,0.232841,9.761186,0.014149,-0.029618,-0.032334,0.957901,-2.756368,124.185356,31.314262914,121.238768011,15.739812,-3.255468,3.560334,-0.023069
35479,11738314,519375764,2020,11,10,7,36,15,0,3.094045,0.302060,9.418294,0.017487,-0.060388,-0.030994,0.965297,-2.785275,124.154427,31.314263228,121.238767684,15.739314,-3.268208,3.578399,-0.023753
35480,11738414,529375764,2020,11,10,7,36,15,0,3.233993,0.707544,9.588970,0.008341,-0.020133,-0.050651,0.975703,-2.801585,124.121315,31.314263544,121.238767356,15.738823,-3.284527,3.597299,-0.025161
35481,11738514,539375764,2020,11,10,7,36,15,0,2.677987,0.811764,9.932831,-0.008284,0.029955,-0.033809,0.980575,-2.792082,124.096107,31.314263860,121.238767025,15.738352,-3.302295,3.613292,-0.024874
35482,11738614,549375764,2020,11,10,7,36,15,0,2.473741,0.616690,10.079407,0.006592,-0.013877,-0.038038,0.983091,-2.786697,124.072517,31.314264179,121.238766693,15.737920,-3.314930,3.627162,-0.023210
35483,11738714,559375764,2020,11,10,7,36,15,0,3.161935,0.389112,9.712743,0.006685,-0.038496,-0.026377,0.985353,-2.813642,124.046265,31.314264499,121.238766359,15.737435,-3.329364,3.646191,-0.022033
35484,11738814,569375764,2020,11,10,7,36,15,0,2.982581,0.210584,9.214706,0.015455,0.016370,-0.030711,0.988948,-2.818484,124.019096,31.314264820,121.238766024,15.736980,-3.342692,3.667531,-0.024395
35485,11738914,579375764,2020,11,10,7,36,15,0,2.857105,0.382900,9.313606,0.008253,0.010969,-0.039859,0.997006,-2.805737,123.989624,31.314265144,121.238765687,15.736441,-3.356262,3.685347,-0.027058
35486,11739014,589375764,2020,11,10,7,36,15,0,3.038849,0.777568,9.745916,-0.013371,-0.008498,-0.038335,1.005564,-2.798790,123.962830,31.314265469,121.238765349,15.735972,-3.373173,3.701259,-0.028770
35487,11739114,599375764,2020,11,10,7,36,15,0,2.712063,0.750582,9.768835,-0.006056,0.035674,-0.041755,1.006952,-2.789004,123.938713,31.314265796,121.238765008,15.735455,-3.388363,3.717957,-0.031221
35488,11738117,499681764,2020,11,10,7,36,15,0,,,,,,,,,,,,,,,
35489,11738117,499681670,2020,11,10,7,36,15,0,,,,,,,,,,,,,,,
35490,11739214,609375670,2020,11,10,7,36,15,0,2.892302,0.586801,9.672987,0.020421,-0.004195,-0.037926,1.006625,-2.787930,123.910027,31.314266124,121.238764666,15.734986,-3.402097,3.736467,-0.032158
35491,11739314,619375670,2020,11,10,7,36,15,0,2.750212,0.060417,9.093695,0.010487,-0.002591,-0.031400,1.003115,-2.793694,123.884949,31.314266703,121.238764061,15.734382,-3.427484,3.768800,-0.032274
35492,11739414,629375670,2020,11,10,7,36,15,0,2.806594,0.702467,9.224565,-0.002193,-0.009848,-0.019446,1.010424,-2.795600,123.856224,31.314267033,121.238763721,15.734157,-3.443297,3.784199,-0.034784
35493,11739514,639375670,2020,11,10,7,36,15,0,3.222170,1.376286,9.832674,-0.010015,-0.045012,-0.026450,1.016862,-2.809437,123.828613,31.314267365,121.238763378,15.733900,-3.462751,3.798622,-0.035175
35494,11739614,649376670,2020,11,10,7,36,15,0,2.845212,0.863947,9.648872,-0.010060,-0.002983,-0.046085,1.008722,-2.820398,123.804977,31.314267698,121.238763034,15.733669,-3.479840,3.814270,-0.036814
35495,11739714,659376670,2020,11,10,7,36,15,0,2.697331,0.756163,9.769816,0.003447,-0.042245,-0.050426,1.005336,-2.826777,123.781540,31.314268033,121.238762687,15.733374,-3.494095,3.828089,-0.036877
35496,11739814,669376670,2020,11,10,7,36,15,0,3.100267,0.548153,9.561894,0.001375,-0.058398,-0.033326,1.003417,-2.867149,123.760269,31.314268369,121.238762339,15.733160,-3.510871,3.846514,-0.036904
35497,11739914,679376670,2020,11,10,7,36,15,0,2.594409,0.716962,9.461401,-0.003001,0.009865,-0.023988,1.001703,-2.879270,123.737816,31.314268706,121.238761989,15.732921,-3.527344,3.863459,-0.037355
35498,11740014,689376670,2020,11,10,7,36,15,0,2.751654,1.014709,10.180510,-0.000790,-0.036672,-0.013213,1.003668,-2.888420,123.711884,31.314269045,121.238761637,15.732708,-3.544142,3.876613,-0.033395
35499,11740114,699376670,2020,11,10,7,36,15,0,3.169219,0.759237,9.878217,-0.019717,-0.072558,-0.018427,0.997802,-2.927486,123.690475,31.314269386,121.238761283,15.732503,-3.561274,3.892663,-0.027718
35500,11740214,709376670,2020,11,10,7,36,15,0,2.972949,0.291635,9.781496,0.008257,-0.028986,-0.040458,0.994912,-2.946992,123.669250,31.314269728,121.238760927,15.732324,-3.573879,3.911167,-0.026371
35501,11740314,719376670,2020,11,10,7,36,15,0,3.582121,0.395726,10.052027,-0.027335,-0.073405,-0.031336,0.994706,-2.976015,123.644157,31.314270071,121.238760570,15.732193,-3.590825,3.930709,-0.022744
35502,11740414,729376670,2020,11,10,7,36,15,0,2.844190,0.003565,9.616421,0.012795,0.036693,-0.042330,0.992961,-2.984471,123.625168,31.314270417,121.238760211,15.732107,-3.601915,3.953318,-0.024726
35503,11740514,739376670,2020,11,10,7,36,15,0,3.050302,0.898826,10.106527,0.025053,-0.003542,-0.040556,1.007292,-2.976208,123.595009,31.314270765,121.238759850,15.731986,-3.616221,3.970983,-0.021197
35504,11740614,749376670,2020,11,10,7,36,15,0,2.905876,0.759319,9.848481,0.015200,-0.021525,-0.024490,1.012302,-2.985151,123.574623,31.314271114,121.238759488,15.731910,-3.633393,3.987450,-0.017482
35505,11740714,759376670,2020,11,10,7,36,15,0,2.971999,0.402149,9.391286,-0.005428,0.015458,-0.002283,1.012630,-2.989779,123.559654,31.314271465,121.238759123,15.731832,-3.651254,4.005480,-0.016274
35506,11740814,769376670,2020,11,10,7,36,15,0,3.479517,0.714052,9.714216,0.006781,-0.010271,-0.026301,1.019006,-2.987998,123.531898,31.314271817,121.238758757,15.731828,-3.666720,4.024979,-0.015252
35507,11740914,779376670,2020,11,10,7,36,15,0,3.145236,0.264831,9.637181,0.005598,0.017694,-0.012566,1.022898,-2.988917,123.519127,31.314272172,121.238758389,15.731796,-3.682031,4.045887,-0.014138
35508,11741014,789376670,2020,11,10,7,36,15,0,3.004777,0.877567,10.143386,0.021549,0.004593,-0.028321,1.036451,-2.975042,123.498360,31.314272528,121.238758019,15.731801,-3.696482,4.063272,-0.010462
35509,11741114,799376670,2020,11,10,7,36,15,0,2.661424,0.729972,9.775716,0.020208,-0.022194,-0.019857,1.046999,-2.983281,123.484207,31.314272886,121.238757647,15.731835,-3.711744,4.078300,-0.008136
35510,11741214,809376670,2020,11,10,7,36,15,0,3.341772,0.985571,9.707888,0.015732,-0.065823,-0.028086,1.060282,-3.012538,123.468002,31.314273245,121.238757274,15.731867,-3.729424,4.094040,-0.007373
35511,11741314,819376670,2020,11,10,7,36,15,0,3.168476,0.604017,9.905177,-0.000846,0.015689,-0.018582,1.062071,-3.019833,123.455833,31.314273605,121.238756898,15.731883,-3.748289,4.113054,-0.007152
35512,11741414,829376670,2020,11,10,7,36,15,0,2.947657,0.443570,10.397108,0.002170,-0.021262,-0.010766,1.064213,-3.023439,123.446220,31.314273968,121.238756521,15.731953,-3.763160,4.131867,-0.001475
35513,11741514,839376670,2020,11,10,7,36,15,0,2.700341,0.040413,9.990108,0.025558,-0.033028,-0.015059,1.067169,-3.040942,123.434990,31.314274332,121.238756142,15.732066,-3.773356,4.150901,0.003027
35514,11741614,849376670,2020,11,10,7,36,15,0,3.079265,0.575707,9.740016,0.010996,-0.069545,-0.005174,1.078679,-3.074938,123.421425,31.314274698,121.238755761,15.732201,-3.787944,4.168226,0.006032
35515,11740617,749681670,2020,11,10,7,36,15,0,,,,,,,,,,,,,,,
35516,11740617,749681577,2020,11,10,7,36,15,0,,,,,,,,,,,,,,,
35517,11741714,859376577,2020,11,10,7,36,15,0,3.289832,0.752976,9.135761,-0.009079,-0.020614,-0.002319,1.083565,-3.106802,123.408745,31.314275066,121.238755379,15.732423,-3.806518,4.187737,0.004574
35518,11741814,869376577,2020,11,10,7,36,15,0,2.927575,0.904097,9.648606,0.013763,0.036413,-0.018458,1.088377,-3.093966,123.376617,31.314275721,121.238754712,15.732492,-3.831902,4.220540,-0.001632
35519,11741914,879376577,2020,11,10,7,36,15,0,3.289138,0.756889,9.968143,-0.032052,-0.003988,0.003660,1.082935,-3.091743,123.347893,31.314276101,121.238754345,15.732588,-3.848668,4.239013,0.004154
35520,11742014,889376577,2020,11,10,7,36,15,0,2.667107,0.046846,9.818651,-0.001405,0.011051,-0.011842,1.074782,-3.083019,123.323494,31.314276483,121.238753976,15.732747,-3.856470,4.258367,0.005742
35521,11742114,899376577,2020,11,10,7,36,15,0,3.372688,0.931045,9.422874,0.007168,-0.034778,-0.016300,1.083805,-3.099321,123.287552,31.314276866,121.238753605,15.732916,-3.868967,4.278782,0.006127
35522,11742214,909376577,2020,11,10,7,36,15,0,2.977738,0.741153,9.076613,0.016854,0.028969,-0.013343,1.083835,-3.092223,123.260750,31.314277251,121.238753233,15.733037,-3.882904,4.298787,0.000804
35523,11742314,919376577,2020,11,10,7,36,15,0,2.946581,1.036120,9.532446,-0.009610,0.041110,-0.021406,1.083297,-3.067835,123.231544,31.314277637,121.238752859,15.733172,-3.899420,4.314532,-0.001538
35524,11742414,929376577,2020,11,10,7,36,15,0,2.504710,1.414315,10.004201,-0.025813,0.033387,0.001032,1.077577,-3.045210,123.207573,31.314278025,121.238752482,15.733216,-3.917832,4.327406,0.000192
35525,11742514,939376577,2020,11,10,7,36,15,0,2.542648,0.666064,9.696536,-0.021745,-0.027423,-0.006934,1.061685,-3.045504,123.184761,31.314278414,121.238752104,15.733322,-3.930038,4.340195,0.000692
35526,11742614,949376577,2020,11,10,7,36,15,0,3.057683,0.547341,9.213540,-0.004824,-0.022998,-0.011902,1.053573,-3.064613,123.156792,31.314278804,121.238751724,15.733424,-3.942913,4.359847,-0.002680
35527,11742714,959376577,2020,11,10,7,36,15,0,2.843412,0.279598,9.129488,-0.019462,0.013161,-0.002712,1.044731,-3.069689,123.133774,31.314279196,121.238751342,15.733518,-3.955857,4.379850,-0.006845
35528,11742814,969376577,2020,11,10,7,36,15,0,2.606024,0.534344,9.616012,-0.003292,0.035054,-0.001261,1.040750,-3.050225,123.101578,31.314279590,121.238750959,15.733536,-3.966353,4.397976,-0.008462
35529,11742914,979376577,2020,11,10,7,36,15,0,2.470160,1.181861,9.786741,0.004608,-0.029820,0.003367,1.045262,-3.053835,123.073929,31.314279985,121.238750574,15.733588,-3.978587,4.410850,-0.007304
35530,11743014,989376577,2020,11,10,7,36,15,0,2.965077,0.695544,9.047868,-0.026400,-0.044692,-0.000949,1.035999,-3.082740,123.047646,31.314280381,121.238750188,15.733622,-3.992925,4.426257,-0.008611
35531,11743114,999376577,2020,11,10,7,36,15,0,3.122122,0.278742,8.905138,-0.015725,0.012571,0.000078,1.025856,-3.088566,123.020058,31.314280778,121.238749799,15.733612,-4.004872,4.447196,-0.015532
35532,11743214,9377577,2020,11,10,7,36,16,0,2.908500,0.331545,9.286961,-0.019056,0.041581,-0.005133,1.017801,-3.071082,122.989166,31.314281178,121.238749410,15.733527,-4.014490,4.468244,-0.019486
35533,11743314,19377577,2020,11,10,7,36,16,0,2.282315,-0.120101,9.523420,0.003957,0.059082,-0.019431,1.008579,-3.036441,122.959564,31.314281579,121.238749019,15.733417,-4.018735,4.486235,-0.021354
35534,11743414,29377577,2020,11,10,7,36,16,0,2.210832,0.981065,9.773162,-0.006112,0.006441,-0.013520,1.015851,-3.021322,122.924011,31.314281982,121.238748627,15.733329,-4.028241,4.497808,-0.020150
35535,11743514,39377577,2020,11,10,7,36,16,0,2.530224,1.214547,9.361054,-0.006919,0.008168,-0.021102,1.014354,-3.024685,122.889709,31.314282385,121.238748233,15.733263,-4.041198,4.510336,-0.022139
35536,11743614,49377577,2020,11,10,7,36,16,0,2.580259,0.716620,9.375855,-0.015309,0.043380,-0.019427,1.001529,-3.006106,122.858315,31.314282790,121.238747838,15.733145,-4.053851,4.524887,-0.024215
35537,11743714,59377577,2020,11,10,7,36,16,0,1.833422,0.426612,9.878317,-0.034396,0.052591,-0.005469,0.987078,-2.971790,122.834465,31.314283195,121.238747441,15.733046,-4.063113,4.535779,-0.023707
35538,11743814,69377577,2020,11,10,7,36,16,0,2.078178,0.434416,10.021297,-0.028712,-0.012319,-0.017893,0.978213,-2.970694,122.806198,31.314283602,121.238747043,15.733001,-4.069354,4.547640,-0.019990
35539,11743914,79377577,2020,11,10,7,36,16,0,1.883757,0.178698,9.431142,0.014555,-0.005022,-0.024018,0.971421,-2.974605,122.774796,31.314284010,121.238746645,15.732962,-4.072639,4.561641,-0.021716
35540,11744014,89377577,2020,11,10,7,36,16,0,2.042078,0.398946,9.403065,-0.024894,-0.013682,-0.011833,0.967501,-2.979027,122.742188,31.314284419,121.238746245,15.732764,-4.080661,4.572036,-0.023437
35541,11744114,99377577,2020,11,10,7,36,16,0,2.200248,0.915698,9.679188,-0.018886,0.037936,-0.014435,0.962526,-2.972606,122.706795,31.314284828,121.238745844,15.732692,-4.090119,4.584947,-0.025893
35542,11744214,109377577,2020,11,10,7,36,16,0,1.839363,0.607539,10.018424,-0.005449,0.030107,-0.014231,0.951705,-2.948587,122.680580,31.314285239,121.238745442,15.732555,-4.097121,4.595441,-0.024527
35543,11743117,999683577,2020,11,10,7,36,15,0,,,,,,,,,,,,,,,
35544,11743117,999681485,2020,11,10,7,36,15,0,,,,,,,,,,,,,,,
35545,11744314,119375485,2020,11,10,7,36,16,0,2.166270,-0.123440,9.775395,-0.046435,-0.006907,0.008073,0.930885,-2.947658,122.676811,31.314285653,121.238745010,15.732420,-4.107688,4.607437,-0.020495
35546,11744414,129375485,2020,11,10,7,36,16,0,2.436354,-0.138289,9.443672,-0.013331,-0.005755,-0.027087,0.920958,-2.951336,122.653847,31.314286269,121.238744385,15.732443,-4.113057,4.632503,-0.021954
35547,11744514,139375485,2020,11,10,7,36,16,0,2.928841,0.278524,9.326673,0.003258,0.029679,-0.016139,0.919030,-2.948893,122.628059,31.314286680,121.238743981,15.732754,-4.121586,4.652938,-0.023952
35548,11744614,149375485,2020,11,10,7,36,16,0,2.217874,0.236648,9.538367,-0.012186,0.098092,-0.021127,0.911077,-2.898913,122.605667,31.314287092,121.238743575,15.733040,-4.129998,4.668194,-0.025357
35549,11744714,159375485,2020,11,10,7,36,16,0,1.962000,1.111534,10.411424,-0.009680,0.075866,-0.008075,0.916602,-2.859541,122.585014,31.314287506,121.238743169,15.733383,-4.141046,4.678606,-0.019597
35550,11744814,169375485,2020,11,10,7,36,16,0,1.573810,0.593584,10.259604,-0.012578,0.037324,-0.007471,0.904786,-2.821507,122.570831,31.314287920,121.238742761,15.733787,-4.148914,4.684284,-0.013722
35551,11744914,179375485,2020,11,10,7,36,16,0,1.934022,0.163825,9.786346,-0.037618,0.007298,0.015155,0.891457,-2.819685,122.554153,31.314288335,121.238742353,15.734225,-4.156068,4.693461,-0.009477
35552,11745014,189375485,2020,11,10,7,36,16,0,1.947384,0.004349,9.599977,-0.003070,0.030573,-0.041708,0.883399,-2.803670,122.534698,31.314288751,121.238741943,15.734653,-4.157491,4.706920,-0.010868
35553,11745114,199375485,2020,11,10,7,36,16,0,2.051135,-0.024855,9.931529,-0.007355,0.044375,-0.014645,0.879863,-2.781972,122.515236,31.314289168,121.238741533,15.735090,-4.163717,4.720625,-0.009630
35554,11745214,209375485,2020,11,10,7,36,16,0,2.308942,0.715438,10.036349,0.001390,0.016985,-0.000739,0.882112,-2.763310,122.491562,31.314289586,121.238741122,15.735515,-4.172726,4.733623,-0.006082
35555,11745314,219375485,2020,11,10,7,36,16,0,2.443274,0.982298,10.109334,-0.001763,-0.011608,-0.009547,0.884501,-2.763505,122.468056,31.314290006,121.238740710,15.735985,-4.184979,4.745939,-0.001106
35556,11745414,229375485,2020,11,10,7,36,16,0,2.643979,0.122180,9.310867,-0.017524,-0.000654,-0.009771,0.871300,-2.768435,122.450142,31.314290426,121.238740296,15.736507,-4.195927,4.761703,-0.001553
35557,11745514,239375485,2020,11,10,7,36,16,0,2.247977,-0.175770,9.348149,-0.010043,0.050922,0.006237,0.866261,-2.754246,122.441208,31.314290849,121.238739881,15.736955,-4.202413,4.780035,-0.003694
35558,11745614,249375485,2020,11,10,7,36,16,0,2.119906,-0.091441,9.746000,0.005823,0.048663,-0.003222,0.865612,-2.725739,122.419380,31.314291273,121.238739465,15.737405,-4.205412,4.795435,-0.003677
35559,11745714,259375485,2020,11,10,7,36,16,0,1.486802,0.286709,10.041178,0.015271,0.051048,-0.008777,0.874060,-2.694839,122.404846,31.314291697,121.238739049,15.737927,-4.208380,4.805904,-0.000073
35560,11745814,269375485,2020,11,10,7,36,16,0,1.949836,1.198863,10.384542,0.015435,-0.008942,-0.005600,0.887512,-2.690175,122.387077,31.314292123,121.238738631,15.738455,-4.217623,4.811853,0.006181
35561,11745914,279375485,2020,11,10,7,36,16,0,2.215101,0.610020,10.152531,-0.022240,0.006854,0.005326,0.882018,-2.688804,122.375038,31.314292550,121.238738213,15.739029,-4.230235,4.821293,0.012237
35562,11746014,289375485,2020,11,10,7,36,16,0,2.454667,0.414091,10.546636,-0.006045,0.010539,-0.003599,0.876753,-2.679959,122.362442,31.314292977,121.238737793,15.739626,-4.238876,4.835414,0.018095
35563,11746114,299375485,2020,11,10,7,36,16,0,2.577076,-0.120061,10.375428,0.005981,-0.004029,-0.002804,0.871528,-2.682546,122.350304,31.314293406,121.238737372,15.740329,-4.245754,4.853486,0.025927
35564,11746214,309375485,2020,11,10,7,36,16,0,2.157138,-0.004409,10.118565,0.027560,0.010439,0.000771,0.879294,-2.682520,122.336342,31.314293837,121.238736950,15.741094,-4.251525,4.871535,0.032603
35565,11746314,319375485,2020,11,10,7,36,16,0,1.890016,0.717467,9.847843,0.025026,-0.008343,0.005531,0.895861,-2.682519,122.322052,31.314294268,121.238736527,15.741982,-4.260049,4.881474,0.037263
35566,11746414,329375485,2020,11,10,7,36,16,0,2.518705,0.998339,9.691154,-0.003882,-0.041424,0.010081,0.906230,-2.701067,122.306656,31.314294701,121.238736102,15.742823,-4.274230,4.891424,0.039137
35567,11746514,339375485,2020,11,10,7,36,16,0,2.239593,0.810353,9.313528,0.000069,0.045495,-0.002570,0.907609,-2.699281,122.298447,31.314295135,121.238735676,15.743626,-4.286398,4.905213,0.035831
35568,11746614,349375485,2020,11,10,7,36,16,0,1.695620,0.069197,9.552525,0.010901,0.050431,-0.002249,0.902861,-2.660573,122.289795,31.314295570,121.238735249,15.744450,-4.291707,4.915517,0.033723
35569,11745617,249681485,2020,11,10,7,36,16,0,,,,,,,,,,,,,,,
35570,11745617,249681391,2020,11,10,7,36,16,0,,,,,,,,,,,,,,,
35571,11746714,359375391,2020,11,10,7,36,16,0,2.143845,-0.221896,9.321216,-0.016297,0.015668,0.013531,0.899396,-2.651828,122.276497,31.314296006,121.238734821,15.745257,-4.297801,4.929586,0.033253
35572,11746814,369375391,2020,11,10,7,36,16,0,2.451174,0.665037,9.504247,0.046579,0.016414,-0.028166,0.915758,-2.639051,122.240280,31.314296783,121.238734057,15.746236,-4.305934,4.959462,0.026696
35573,11746914,379375391,2020,11,10,7,36,16,0,2.991274,0.421083,9.492867,-0.003099,0.024169,0.004496,0.920953,-2.633490,122.222893,31.314297237,121.238733622,15.747094,-4.323171,4.978992,0.027740
35574,11747014,389375391,2020,11,10,7,36,16,0,2.224518,0.471340,9.908872,-0.011066,0.036963,0.008885,0.924637,-2.608965,122.211197,31.314297692,121.238733185,15.747957,-4.336439,4.996824,0.030696
35575,11747114,399375391,2020,11,10,7,36,16,0,1.896501,0.772581,10.148224,0.034437,-0.004220,0.006346,0.936337,-2.599434,122.197472,31.314298149,121.238732747,15.748871,-4.344464,5.009695,0.032586
35576,11747214,409375391,2020,11,10,7,36,16,0,2.236776,0.635381,9.636775,0.011245,-0.075118,0.019369,0.941417,-2.634133,122.186897,31.314298606,121.238732308,15.749815,-4.356602,5.023596,0.036220
35577,11747314,419375391,2020,11,10,7,36,16,0,2.492116,0.377594,9.426649,0.008375,-0.070378,-0.015953,0.943340,-2.673841,122.170952,31.314299065,121.238731867,15.750736,-4.367606,5.038954,0.036613
35578,11747414,429375391,2020,11,10,7,36,16,0,2.509640,1.126483,9.669436,-0.010547,-0.056075,0.000709,0.951890,-2.705699,122.150452,31.314299525,121.238731425,15.751666,-4.384599,5.053921,0.037498
35579,11747514,439375391,2020,11,10,7,36,16,0,1.805033,0.873962,9.220496,0.012440,-0.048926,-0.018951,0.953402,-2.730937,122.139984,31.314299986,121.238730981,15.752558,-4.395599,5.066046,0.032940
35580,11747614,449375391,2020,11,10,7,36,16,0,2.971026,0.770736,9.092050,0.014009,-0.063208,0.007594,0.953415,-2.775119,122.117500,31.314300447,121.238730536,15.753407,-4.411433,5.083421,0.028751
35581,11747714,459375391,2020,11,10,7,36,16,0,2.257087,0.576120,9.644792,-0.019525,0.019720,0.016989,0.947643,-2.779872,122.103447,31.314300911,121.238730089,15.754203,-4.426641,5.099900,0.029374
35582,11747814,469375391,2020,11,10,7,36,16,0,2.035608,0.268328,10.067520,-0.014408,-0.014012,-0.007923,0.939078,-2.770800,122.082527,31.314301375,121.238729641,15.755030,-4.434321,5.112369,0.033346
35583,11747914,479375391,2020,11,10,7,36,16,0,2.097260,0.713114,10.167759,0.013898,-0.069332,-0.019796,0.948042,-2.795769,122.063202,31.314301841,121.238729191,15.755917,-4.442393,5.126125,0.038288
35584,11748014,489375391,2020,11,10,7,36,16,0,2.647224,0.936910,9.519144,0.010925,-0.068781,-0.010628,0.954825,-2.846335,122.047188,31.314302308,121.238728741,15.756826,-4.457671,5.141829,0.039563
35585,11748114,499375391,2020,11,10,7,36,16,0,2.410357,0.436853,9.550771,0.002130,0.009856,0.012598,0.950964,-2.854463,122.032372,31.314302776,121.238728289,15.757727,-4.472292,5.159575,0.039010
35586,11748214,509375391,2020,11,10,7,36,16,0,1.869413,0.327814,9.816855,-0.003561,-0.006995,0.019499,0.948472,-2.855338,122.017464,31.314303245,121.238727835,15.758568,-4.481313,5.172979,0.041663
35587,11748314,519375391,2020,11,10,7,36,16,0,1.865255,0.450781,9.908788,-0.001134,-0.052948,-0.011788,0.950317,-2.868562,121.998314,31.314303715,121.238727381,15.759489,-4.487680,5.183627,0.045566
35588,11748414,529375391,2020,11,10,7,36,16,0,2.561214,0.901107,9.830414,0.011203,-0.091195,-0.009708,0.962312,-2.915634,121.983215,31.314304186,121.238726925,15.760405,-4.499926,5.198225,0.047833
35589,11748514,539375391,2020,11,10,7,36,16,0,2.605634,0.920196,9.357086,-0.007817,-0.037086,-0.001711,0.963547,-2.952891,121.966522,31.314304659,121.238726468,15.761333,-4.516305,5.214892,0.047168
35590,11748614,549375391,2020,11,10,7,36,16,0,2.187232,0.456080,9.365182,0.027248,0.023935,-0.007011,0.961909,-2.947037,121.949928,31.314305132,121.238726009,15.762205,-4.526446,5.231531,0.043048
35591,11748714,559375391,2020,11,10,7,36,16,0,2.363856,0.425801,9.896443,-0.014222,-0.047196,0.007447,0.958884,-2.956351,121.933548,31.314305607,121.238725549,15.763092,-4.539330,5.245306,0.047936
35592,11748814,569375391,2020,11,10,7,36,16,0,2.059644,0.482904,10.292537,-0.028791,-0.010084,-0.002418,0.953501,-2.967453,121.913673,31.314306083,121.238725088,15.764019,-4.549941,5.259040,0.053807
35593,11748914,579375391,2020,11,10,7,36,16,0,2.244394,0.900136,10.078227,0.012287,-0.069518,-0.018865,0.955993,-2.992340,121.892174,31.314306560,121.238724626,15.764982,-4.558792,5.272603,0.058342
35594,11749014,589375391,2020,11,10,7,36,16,0,2.767529,0.557916,9.372874,-0.005196,-0.070570,0.004108,0.951150,-3.042426,121.876015,31.314307039,121.238724162,15.766034,-4.573521,5.290393,0.060008
35595,11749114,599375391,2020,11,10,7,36,16,0,2.602919,0.722587,9.229663,-0.013760,0.018593,0.004301,0.943672,-3.045938,121.856125,31.314307518,121.238723697,15.767043,-4.588107,5.307548,0.057277
35596,11748117,499681391,2020,11,10,7,36,16,0,,,,,,,,,,,,,,,
35597,11748117,499681298,2020,11,10,7,36,16,0,,,,,,,,,,,,,,,
35598,11749214,609375298,2020,11,10,7,36,16,0,1.878720,0.728751,9.816781,-0.017214,0.006666,0.001196,0.937111,-3.030669,121.843094,31.314307999,121.238723230,15.768006,-4.599415,5.319713,0.058349
35599,11749314,619375298,2020,11,10,7,36,16,0,2.580473,0.804465,9.997660,-0.021130,-0.061180,-0.003198,0.928548,-3.055501,121.830505,31.314308842,121.238722406,15.769073,-4.620522,5.341620,0.063076
35600,11749414,629375298,2020,11,10,7,36,16,0,2.017831,0.628741,9.757881,-0.026065,0.040098,0.000190,0.914687,-3.049846,121.820992,31.314309330,121.238721939,15.769570,-4.632774,5.356887,0.063548
35601,11749514,639375298,2020,11,10,7,36,16,0,2.563727,0.647069,9.593399,0.000723,-0.035849,0.006337,0.904788,-3.057509,121.805267,31.314309820,121.238721471,15.770088,-4.643173,5.371717,0.062460
35602,11749614,649376298,2020,11,10,7,36,16,0,2.859672,0.669868,9.530319,-0.036247,-0.003299,0.014945,0.890154,-3.070986,121.793625,31.314310310,121.238721001,15.770547,-4.659669,5.390420,0.063864
35603,11749714,659376298,2020,11,10,7,36,16,0,1.957049,-0.109443,9.731969,-0.049618,0.058185,0.003570,0.867514,-3.042483,121.787277,31.314310802,121.238720529,15.771049,-4.668741,5.405979,0.063576
35604,11749814,669376298,2020,11,10,7,36,16,0,2.428442,0.743195,10.167542,-0.007838,-0.039311,-0.008637,0.866287,-3.039846,121.770447,31.314311296,121.238720057,15.771560,-4.675491,5.421144,0.065482
35605,11749914,679376298,2020,11,10,7,36,16,0,2.327630,0.410484,9.058574,-0.002575,0.000063,-0.001618,0.856759,-3.062608,121.759148,31.314311790,121.238719584,15.772058,-4.686902,5.440022,0.061999
35606,11750014,689376298,2020,11,10,7,36,16,0,2.347402,-0.136112,8.814742,-0.008270,0.017131,0.001267,0.844182,-3.048270,121.743919,31.314312286,121.238719109,15.772546,-4.694855,5.457452,0.055692
35607,11750114,699376298,2020,11,10,7,36,16,0,2.889354,0.513349,9.743600,-0.016786,0.010882,0.008052,0.845581,-3.042928,121.725105,31.314312784,121.238718634,15.772962,-4.707552,5.476986,0.053478
35608,11750214,709376298,2020,11,10,7,36,16,0,1.885733,0.387961,9.795352,-0.023642,0.070221,-0.012846,0.835283,-3.010541,121.712212,31.314313282,121.238718156,15.773382,-4.716370,5.492661,0.053564
35609,11750314,719376298,2020,11,10,7,36,16,0,1.832421,0.448802,10.049921,0.020450,-0.009435,-0.013453,0.833827,-2.991895,121.696175,31.314313782,121.238717679,15.773826,-4.721604,5.505280,0.055027
35610,11750414,729376298,2020,11,10,7,36,16,0,2.676907,0.834485,9.552757,-0.009914,-0.068413,0.000846,0.834336,-3.027992,121.683838,31.314314283,121.238717200,15.774309,-4.735769,5.520216,0.056938
35611,11750514,739376298,2020,11,10,7,36,16,0,2.416577,0.401914,9.298022,-0.016397,0.053679,-0.001824,0.821386,-3.025564,121.670410,31.314314786,121.238716719,15.774782,-4.749585,5.537985,0.053363
35612,11750614,749376298,2020,11,10,7,36,16,0,2.256035,0.449734,9.949321,-0.033587,-0.003496,0.028463,0.810514,-3.007365,121.658699,31.314315289,121.238716237,15.775223,-4.761456,5.553054,0.055597
35613,11750714,759376298,2020,11,10,7,36,16,0,2.363649,0.412009,10.246415,0.002364,-0.028610,-0.025631,0.806104,-3.016382,121.645546,31.314315795,121.238715754,15.775756,-4.768271,5.569332,0.058903
35614,11750814,769376298,2020,11,10,7,36,16,0,1.960139,0.485900,9.859846,-0.003801,0.013349,-0.000329,0.804554,-3.019345,121.633842,31.314316300,121.238715270,15.776260,-4.778944,5.582942,0.060917
35615,11750914,779376298,2020,11,10,7,36,16,0,2.497678,0.612700,9.652694,-0.000282,-0.048530,0.000893,0.802889,-3.033351,121.618141,31.314316808,121.238714785,15.776796,-4.789978,5.598436,0.061736
35616,11751014,789376298,2020,11,10,7,36,16,0,2.775710,0.053390,8.963103,-0.006242,0.016280,-0.000729,0.793124,-3.048230,121.603256,31.314317316,121.238714298,15.777325,-4.801891,5.619190,0.057748
35617,11751114,799376298,2020,11,10,7,36,16,0,2.291634,0.058397,9.615606,-0.016224,0.073297,-0.002977,0.789839,-3.004734,121.583542,31.314317827,121.238713810,15.777808,-4.811324,5.637120,0.055795
35618,11751214,809376298,2020,11,10,7,36,16,0,2.071646,0.425361,9.988526,0.000305,0.032979,-0.007403,0.795102,-2.976831,121.568642,31.314318338,121.238713322,15.778254,-4.818004,5.652316,0.056140
35619,11751314,819376298,2020,11,10,7,36,16,0,2.175220,0.822905,9.831634,0.028525,0.017706,-0.016312,0.801907,-2.959899,121.552849,31.314318851,121.238712832,15.778735,-4.826907,5.666158,0.056271
35620,11751414,829376298,2020,11,10,7,36,16,0,2.392295,0.400150,9.454779,0.003711,0.037070,-0.003327,0.802164,-2.948242,121.537796,31.314319364,121.238712340,15.779270,-4.840015,5.682195,0.056224
35621,11751514,839376298,2020,11,10,7,36,16,0,2.545310,0.260562,9.307183,-0.006644,0.023947,0.014066,0.798542,-2.929657,121.526855,31.314319880,121.238711848,15.779742,-4.851623,5.699797,0.054088
35622,11751614,849376298,2020,11,10,7,36,16,0,2.519171,0.017830,9.558216,-0.025609,0.036209,0.001880,0.794178,-2.910583,121.512634,31.314320396,121.238711354,15.780203,-4.861904,5.718818,0.053250
35623,11750617,749681298,2020,11,10,7,36,16,0,,,,,,,,,,,,,,,
35624,11750617,749681205,2020,11,10,7,36,16,0,,,,,,,,,,,,,,,
35625,11751714,859376205,2020,11,10,7,36,16,0,1.913208,0.493372,9.830456,0.017104,0.040232,-0.014377,0.799550,-2.879466,121.496048,31.314320914,121.238710860,15.780679,-4.867592,5.734022,0.050840
35626,11751814,869376205,2020,11,10,7,36,16,0,2.192432,1.104715,10.147334,0.006698,-0.027044,-0.013047,0.806670,-2.881274,121.484138,31.314321820,121.238709986,15.781284,-4.887572,5.754017,0.054856
35627,11751914,879376205,2020,11,10,7,36,16,0,2.339999,0.353703,9.710358,-0.010012,0.006296,0.001759,0.796545,-2.893618,121.474205,31.314322342,121.238709489,15.781636,-4.900590,5.770582,0.057364
35628,11752014,889376205,2020,11,10,7,36,16,0,2.088903,0.037300,9.561160,-0.013670,-0.008887,0.012925,0.785423,-2.888130,121.460411,31.314322866,121.238708991,15.782050,-4.909248,5.786433,0.058643
35629,11752114,899376205,2020,11,10,7,36,16,0,2.795060,0.074423,9.574759,-0.007699,-0.060046,0.002576,0.783072,-2.915960,121.444847,31.314323391,121.238708492,15.782494,-4.917779,5.805676,0.058874
35630,11752214,909376205,2020,11,10,7,36,16,0,2.625002,0.790282,9.852379,-0.009556,0.014246,-0.020762,0.785350,-2.922916,121.426369,31.314323918,121.238707992,15.782909,-4.930170,5.824793,0.059468
35631,11752314,919376205,2020,11,10,7,36,16,0,1.458410,0.853882,10.058565,-0.008598,0.045878,-0.016311,0.782148,-2.890418,121.415627,31.314324446,121.238707490,15.783350,-4.941195,5.833889,0.060029
35632,11752414,929376205,2020,11,10,7,36,16,0,2.470978,1.245035,10.100092,-0.003676,-0.057641,0.002069,0.780328,-2.911587,121.403755,31.314324974,121.238706987,15.783866,-4.955458,5.845371,0.064514
35633,11752514,939376205,2020,11,10,7,36,16,0,2.505032,0.207885,9.211008,-0.031523,0.019095,0.004645,0.755668,-2.919703,121.392227,31.314325504,121.238706482,15.784375,-4.970141,5.862816,0.064048
35634,11752614,949376205,2020,11,10,7,36,16,0,2.622100,0.227510,9.757619,-0.034042,0.041427,0.009794,0.741699,-2.895284,121.376480,31.314326035,121.238705976,15.784882,-4.981355,5.881662,0.064618
35635,11752714,959376205,2020,11,10,7,36,16,0,2.090752,0.422737,9.863511,-0.041187,0.040055,-0.002098,0.728015,-2.868166,121.366684,31.314326568,121.238705469,15.785430,-4.990825,5.897394,0.066638
35636,11752814,969376205,2020,11,10,7,36,16,0,2.271147,0.403229,9.726788,-0.003791,0.011974,-0.023094,0.718727,-2.850412,121.352615,31.314327101,121.238704960,15.785966,-4.998213,5.912245,0.064947
35637,11752914,979376205,2020,11,10,7,36,16,0,2.183618,0.884283,9.354168,-0.011940,0.039885,0.007776,0.712305,-2.838438,121.344284,31.314327636,121.238704451,15.786463,-5.011769,5.927731,0.062921
35638,11753014,989376205,2020,11,10,7,36,16,0,2.319568,0.692788,9.450642,-0.018847,0.029752,0.002877,0.695948,-2.819841,121.332794,31.314328172,121.238703940,15.786964,-5.025174,5.941233,0.060278
35639,11753114,999376205,2020,11,10,7,36,16,0,2.348457,-0.262859,9.468241,-0.049503,0.049495,0.016090,0.670074,-2.798068,121.325241,31.314328710,121.238703427,15.787480,-5.035917,5.959501,0.060666
35640,11753214,9376205,2020,11,10,7,36,17,0,2.078206,-0.004878,9.617643,-0.025897,-0.008199,-0.006972,0.659406,-2.787469,121.309967,31.314329249,121.238702914,15.787892,-5.041072,5.976536,0.060181
35641,11753314,19376205,2020,11,10,7,36,17,0,2.505588,0.294320,9.482302,0.006250,-0.019954,-0.028373,0.658402,-2.795619,121.289261,31.314329789,121.238702400,15.788320,-5.047575,5.994962,0.058018
35642,11753414,29376205,2020,11,10,7,36,17,0,2.279000,1.048813,9.487082,-0.001241,-0.017053,-0.006942,0.661661,-2.801682,121.274849,31.314330330,121.238701885,15.788744,-5.062392,6.009543,0.055806
35643,11753514,39376205,2020,11,10,7,36,17,0,2.092680,1.100990,9.611891,-0.021154,0.011467,-0.000766,0.656588,-2.799272,121.262932,31.314330873,121.238701368,15.789140,-5.078325,6.020825,0.053381
35644,11753614,49376205,2020,11,10,7,36,17,0,2.213324,0.185837,9.330394,-0.003061,-0.008516,0.010420,0.642542,-2.805397,121.256844,31.314331417,121.238700849,15.789545,-5.089300,6.037385,0.050759
35645,11753714,59376205,2020,11,10,7,36,17,0,2.369722,-0.064287,9.263734,-0.021553,-0.018939,0.005806,0.631300,-2.815990,121.240532,31.314331962,121.238700330,15.789948,-5.098437,6.054572,0.049766
35646,11753814,69376205,2020,11,10,7,36,17,0,2.481854,0.094418,9.538836,-0.022459,-0.005540,-0.002430,0.629548,-2.817200,121.228363,31.314332508,121.238699809,15.790320,-5.107124,6.073011,0.048293
35647,11753914,79376205,2020,11,10,7,36,17,0,2.501563,0.516614,9.439968,0.016811,-0.011854,-0.029454,0.636198,-2.823837,121.210831,31.314333056,121.238699287,15.790629,-5.115413,6.091553,0.044991
35648,11754014,89376205,2020,11,10,7,36,17,0,2.009775,0.708921,9.405771,0.011303,0.040079,-0.005494,0.640087,-2.806430,121.199440,31.314333606,121.238698764,15.790951,-5.127934,6.105949,0.040302
35649,11754114,99376205,2020,11,10,7,36,17,0,2.254619,0.535403,9.410707,-0.010343,0.013181,0.010056,0.635996,-2.796525,121.188278,31.314334156,121.238698240,15.791215,-5.140766,6.120160,0.038398
35650,11754214,109376205,2020,11,10,7,36,17,0,2.090612,0.200961,9.544991,0.007638,0.050505,0.007912,0.632428,-2.781032,121.178810,31.314334708,121.238697714,15.791483,-5.149497,6.137160,0.036965
35651,11753117,999682205,2020,11,10,7,36,16,0,,,,,,,,,,,,,,,
35652,11753117,999681113,2020,11,10,7,36,16,0,,,,,,,,,,,,,,,
35653,11754314,119375113,2020,11,10,7,36,17,0,2.490206,0.173151,9.952393,-0.014518,-0.014007,0.009053,0.628485,-2.770452,121.175629,31.314335260,121.238697172,15.791999,-5.160544,6.151028,0.041061
35654,11754414,129375113,2020,11,10,7,36,17,0,2.393438,-0.166119,9.722453,-0.001973,-0.014696,-0.005831,0.628257,-2.775233,121.169685,31.314336084,121.238696377,15.792335,-5.170768,6.177074,0.042263
35655,11754514,139375113,2020,11,10,7,36,17,0,2.544507,0.944514,9.731380,0.012382,-0.030261,-0.015527,0.641713,-2.789016,121.156013,31.314336632,121.238695858,15.792439,-5.181174,6.192564,0.041922
35656,11754614,149375113,2020,11,10,7,36,17,0,2.203640,0.006711,9.193851,0.009637,0.008935,-0.013885,0.638497,-2.791131,121.149704,31.314337182,121.238695337,15.792555,-5.189971,6.208388,0.037135
35657,11754714,159375113,2020,11,10,7,36,17,0,2.369491,0.233797,9.477433,0.010928,0.006448,0.002848,0.642491,-2.788432,121.138817,31.314337734,121.238694815,15.792607,-5.198759,6.224905,0.034187
35658,11754814,169375113,2020,11,10,7,36,17,0,2.311542,0.528807,9.943283,-0.012998,0.036194,0.015218,0.642951,-2.776607,121.126152,31.314338287,121.238694292,15.792701,-5.209886,6.240068,0.036045
35659,11754914,179375113,2020,11,10,7,36,17,0,2.307510,-0.517662,9.689169,0.010759,-0.013825,0.000989,0.637100,-2.773735,121.119865,31.314338841,121.238693769,15.792787,-5.212928,6.257768,0.038276
35660,11755014,189375113,2020,11,10,7,36,17,0,2.308177,0.501843,9.658300,0.025216,-0.004809,-0.017750,0.653233,-2.774529,121.105484,31.314339397,121.238693244,15.792916,-5.219683,6.273324,0.037885
35661,11755114,199375113,2020,11,10,7,36,17,0,2.571469,0.947109,9.443641,-0.001580,-0.000688,-0.004485,0.662711,-2.775048,121.096275,31.314339954,121.238692718,15.793063,-5.233694,6.285989,0.035419
35662,11755214,209375113,2020,11,10,7,36,17,0,2.361081,0.438517,9.350502,0.004069,0.067274,-0.002944,0.659929,-2.756370,121.091553,31.314340512,121.238692191,15.793145,-5.245143,6.302591,0.030503
35663,11755314,219375113,2020,11,10,7,36,17,0,2.163201,0.630862,10.025009,0.003722,0.068856,-0.005971,0.658678,-2.711989,121.079926,31.314341072,121.238691662,15.793179,-5.255543,6.315996,0.031601
35664,11755414,229375113,2020,11,10,7,36,17,0,2.110066,-0.304265,9.622556,-0.014608,0.039341,0.022849,0.647026,-2.689732,121.074432,31.314341633,121.238691132,15.793293,-5.263763,6.331596,0.034509
35665,11755514,239375113,2020,11,10,7,36,17,0,2.492464,0.794288,9.575547,0.011880,-0.005473,0.000270,0.657583,-2.682212,121.059792,31.314342195,121.238690601,15.793388,-5.271257,6.346573,0.033955
35666,11755614,249375113,2020,11,10,7,36,17,0,2.637140,0.213578,8.827838,-0.006385,0.033488,-0.014597,0.653139,-2.676240,121.049561,31.314342759,121.238690069,15.793477,-5.282501,6.364014,0.028244
35667,11755714,259375113,2020,11,10,7,36,17,0,2.249032,0.573712,9.569773,-0.030984,0.061487,-0.001425,0.651609,-2.639336,121.040352,31.314343324,121.238689536,15.793486,-5.294309,6.378045,0.024503
35668,11755814,269375113,2020,11,10,7,36,17,0,2.242086,0.875381,10.293542,-0.006934,0.037340,-0.019595,0.648356,-2.609771,121.029396,31.314343891,121.238689001,15.793477,-5.303872,6.391184,0.025011
35669,11755914,279375113,2020,11,10,7,36,17,0,2.107431,-0.161212,9.931774,0.004896,-0.005794,-0.000803,0.635055,-2.607406,121.024590,31.314344458,121.238688465,15.793549,-5.310535,6.407063,0.029081
35670,11756014,289375113,2020,11,10,7,36,17,0,1.950572,0.176766,9.437972,0.001182,0.001206,0.005149,0.633792,-2.610162,121.009865,31.314345027,121.238687928,15.793615,-5.317627,6.421045,0.029434
35671,11756114,299375113,2020,11,10,7,36,17,0,2.442267,0.918058,9.332622,-0.006442,-0.023793,-0.001799,0.638440,-2.624699,120.992790,31.314345598,121.238687390,15.793698,-5.329463,6.434036,0.027314
35672,11756214,309375113,2020,11,10,7,36,17,0,2.630211,0.753266,9.526281,-0.011775,0.015388,-0.007325,0.629296,-2.626441,120.980270,31.314346169,121.238686851,15.793740,-5.343147,6.449482,0.025354
35673,11756314,319375113,2020,11,10,7,36,17,0,2.001371,0.522653,10.360175,-0.051408,0.030635,-0.002295,0.614623,-2.602275,120.969727,31.314346741,121.238686309,15.793813,-5.356080,6.460196,0.030096
35674,11756414,329375113,2020,11,10,7,36,17,0,2.402409,0.274645,10.353434,-0.002195,-0.061925,-0.031114,0.605915,-2.615180,120.954048,31.314347315,121.238685767,15.793934,-5.361199,6.474561,0.034854
35675,11756514,339375113,2020,11,10,7,36,17,0,2.517958,0.400962,9.386186,0.002692,-0.036858,-0.011118,0.602989,-2.648862,120.942627,31.314347890,121.238685224,15.794147,-5.371605,6.492480,0.035270
35676,11756614,349375113,2020,11,10,7,36,17,0,2.538200,0.350979,9.339501,0.001531,0.019213,-0.009844,0.600025,-2.645515,120.927559,31.314348467,121.238684680,15.794279,-5.382869,6.509034,0.030842
35677,11756714,359375113,2020,11,10,7,36,17,0,2.214279,0.476857,9.491526,-0.010377,0.059857,0.003547,0.595009,-2.627101,120.915604,31.314349045,121.238684133,15.794403,-5.394756,6.525746,0.028915
35678,11756814,369375113,2020,11,10,7,36,17,0,2.090716,0.733095,10.031579,0.002771,0.032579,0.003103,0.591319,-2.600501,120.899872,31.314349625,121.238683586,15.794541,-5.405228,6.537920,0.031466
35679,11756914,379375113,2020,11,10,7,36,17,0,2.339514,0.182923,9.909047,-0.028025,-0.004056,0.006316,0.581348,-2.595536,120.894623,31.314350213,121.238683017,15.795016,-5.417646,6.550258,0.036563
35680,11757014,389375113,2020,11,10,7,36,17,0,2.663763,0.359861,9.807346,-0.021443,-0.024678,-0.027576,0.577788,-2.608491,120.884308,31.314350803,121.238682446,15.795521,-5.428000,6.567041,0.038629
35681,11757114,399375113,2020,11,10,7,36,17,0,2.107861,-0.199256,9.340462,0.005639,0.028274,-0.036468,0.572528,-2.600629,120.879639,31.314351394,121.238681874,15.796010,-5.434786,6.583987,0.034527
35682,11755617,249681113,2020,11,10,7,36,17,0,,,,,,,,,,,,,,,
35683,11755617,249681019,2020,11,10,7,36,17,0,,,,,,,,,,,,,,,
35684,11757214,409375019,2020,11,10,7,36,17,0,2.634053,1.273250,10.261668,-0.009292,-0.024286,-0.007181,0.582672,-2.599568,120.867195,31.314351987,121.238681302,15.796573,-5.451010,6.597352,0.036283
35685,11757314,419375019,2020,11,10,7,36,17,0,2.047027,0.396543,9.760438,-0.000271,0.025209,-0.016314,0.572338,-2.604540,120.865318,31.314352822,121.238680497,15.797281,-5.465567,6.612303,0.040616
35686,11757414,429375019,2020,11,10,7,36,17,0,1.741152,-0.258059,9.768748,0.004993,-0.039090,-0.006075,0.562595,-2.604934,120.857948,31.314353348,121.238679996,15.798103,-5.464561,6.616983,0.043670
35687,11757514,439375019,2020,11,10,7,36,17,0,2.753254,-0.068465,9.587145,-0.011832,-0.093359,-0.000852,0.563270,-2.657475,120.849449,31.314353875,121.238679494,15.798976,-5.467316,6.627658,0.045839
35688,11757614,449375019,2020,11,10,7,36,17,0,2.799346,-0.113698,9.085361,0.005624,-0.011605,-0.002781,0.564185,-2.691036,120.840462,31.314354403,121.238678992,15.799799,-5.470871,6.642736,0.042915
35689,11757714,459375019,2020,11,10,7,36,17,0,2.128373,0.515867,9.459501,0.008500,0.034504,-0.025153,0.572850,-2.676433,120.823822,31.314354934,121.238678488,15.800631,-5.473603,6.651815,0.040991
35690,11757814,469375019,2020,11,10,7,36,17,0,2.336236,0.472522,9.718525,0.009773,-0.073661,-0.024769,0.579209,-2.692951,120.817986,31.314355465,121.238677983,15.801426,-5.477013,6.655265,0.041505
35691,11757914,479375019,2020,11,10,7,36,17,0,2.634134,0.515365,9.783010,-0.027180,-0.011832,-0.010294,0.581429,-2.723830,120.810776,31.314355998,121.238677477,15.802203,-5.485707,6.664353,0.042550
35692,11758014,489375019,2020,11,10,7,36,17,0,2.052856,-0.021062,9.858845,0.031357,0.008775,-0.037934,0.581164,-2.716200,120.800995,31.314356531,121.238676969,15.802972,-5.483968,6.673744,0.041433
35693,11758114,499375019,2020,11,10,7,36,17,0,2.400988,0.177970,10.005217,0.006100,-0.022544,0.003197,0.584628,-2.731905,120.790421,31.314357067,121.238676461,15.803807,-5.488572,6.683064,0.046672
35694,11758214,509375019,2020,11,10,7,36,17,0,2.035517,-0.224702,9.689416,0.007956,-0.012301,-0.010370,0.584015,-2.741913,120.783470,31.314357603,121.238675952,15.804668,-5.488437,6.690911,0.049478
35695,11758314,519375019,2020,11,10,7,36,17,0,2.294099,0.039262,9.566268,0.013138,-0.031455,-0.014974,0.593413,-2.766061,120.769730,31.314358142,121.238675443,15.805520,-5.489168,6.700480,0.051072
35696,11758414,529375019,2020,11,10,7,36,17,0,2.511077,0.797202,9.494643,0.005590,-0.035486,-0.013404,0.604726,-2.789461,120.756844,31.314358681,121.238674932,15.806407,-5.495039,6.707579,0.050916
35697,11758514,539375019,2020,11,10,7,36,17,0,2.622782,-0.220730,9.302132,-0.025903,-0.020769,-0.007874,0.597489,-2.811639,120.750175,31.314359222,121.238674420,15.807253,-5.499267,6.717124,0.050879
35698,11758614,549375019,2020,11,10,7,36,17,0,2.316324,-0.058251,9.725096,0.012553,-0.008284,-0.036927,0.601704,-2.813266,120.737854,31.314359764,121.238673908,15.808059,-5.498000,6.728538,0.048794
35699,11758714,559375019,2020,11,10,7,36,17,0,2.149615,0.302783,9.858097,0.001634,-0.028402,-0.030771,0.609371,-2.830686,120.727898,31.314360308,121.238673394,15.808931,-5.500945,6.736242,0.050366
35700,11758814,569375019,2020,11,10,7,36,17,0,2.451099,0.317836,10.035861,0.012571,-0.019635,-0.003037,0.611907,-2.846053,120.716438,31.314360853,121.238672880,15.809779,-5.504883,6.744755,0.052278
35701,11758914,579375019,2020,11,10,7,36,17,0,1.952185,0.633615,10.208092,0.003328,-0.016457,-0.015569,0.613719,-2.857020,120.703545,31.314361399,121.238672364,15.810631,-5.509391,6.749592,0.057530
35702,11759014,589375019,2020,11,10,7,36,17,0,2.398363,0.280276,9.880259,-0.012432,-0.056975,-0.014013,0.607161,-2.890110,120.690781,31.314361946,121.238671847,15.811598,-5.514240,6.756361,0.062734
35703,11759114,599375019,2020,11,10,7,36,17,0,2.510641,-0.305119,9.690948,-0.000902,-0.057560,-0.012575,0.601342,-2.927094,120.679581,31.314362495,121.238671330,15.812529,-5.515189,6.767702,0.065938
35704,11758117,499681019,2020,11,10,7,36,17,0,,,,,,,,,,,,,,,
35705,11758117,499680926,2020,11,10,7,36,17,0,,,,,,,,,,,,,,,
35706,11759214,609374926,2020,11,10,7,36,17,0,2.397382,0.295156,9.971929,-0.008106,-0.004910,-0.020705,0.606517,-2.950942,120.664528,31.314363045,121.238670811,15.813538,-5.518314,6.777720,0.069190
35707,11759314,619374926,2020,11,10,7,36,17,0,1.918580,0.120358,10.276762,0.009396,-0.016192,-0.030072,0.612651,-2.968587,120.649826,31.314364098,121.238669808,15.814244,-5.530727,6.802725,0.076814
35708,11759414,629374926,2020,11,10,7,36,17,0,2.220200,0.241275,10.385188,0.016584,-0.061007,-0.020422,0.620794,-2.990683,120.635117,31.314364732,121.238669201,15.814242,-5.543211,6.819620,0.083133
35709,11759514,639374926,2020,11,10,7,36,17,0,2.971243,0.913279,10.399993,0.000267,-0.079276,-0.036596,0.634281,-3.029750,120.617905,31.314365367,121.238668592,15.814309,-5.561690,6.838689,0.088722
35710,11759614,649375926,2020,11,10,7,36,17,0,2.644992,-0.036954,9.788366,0.027931,-0.026236,-0.022948,0.634663,-3.053350,120.609520,31.314366003,121.238667982,15.814419,-5.576953,6.863328,0.089032
35711,11759714,659375926,2020,11,10,7,36,17,0,1.610092,-0.158299,9.134110,0.014452,0.048139,-0.015517,0.636389,-3.032995,120.597031,31.314366642,121.238667371,15.814543,-5.587822,6.882515,0.085337
35712,11759814,669375926,2020,11,10,7,36,17,0,2.767559,0.796272,9.609510,0.037459,-0.037368,-0.021790,0.656691,-3.035250,120.579338,31.314367282,121.238666760,15.814628,-5.602099,6.900768,0.082596
35713,11759914,679375926,2020,11,10,7,36,17,0,2.529571,-0.171430,8.830354,-0.028233,0.046644,-0.003147,0.646504,-3.032815,120.571854,31.314367922,121.238666146,15.814722,-5.620796,6.923337,0.078051
35714,11760014,689375926,2020,11,10,7,36,17,0,2.541051,0.600190,10.191780,-0.002395,0.075459,-0.031276,0.651690,-2.982296,120.546692,31.314368565,121.238665532,15.814752,-5.634516,6.943357,0.076710
35715,11760114,699375926,2020,11,10,7,36,17,0,2.395554,-0.366389,10.375813,-0.000432,0.020447,-0.027955,0.642943,-2.960157,120.536499,31.314369209,121.238664916,15.814868,-5.645824,6.965401,0.082773
35716,11760214,709375926,2020,11,10,7,36,17,0,1.596003,0.244323,10.275957,0.012275,0.013245,-0.020449,0.651311,-2.948694,120.525871,31.314369855,121.238664300,15.815039,-5.656111,6.982044,0.088944
35717,11760314,719375926,2020,11,10,7,36,17,0,2.183459,0.938039,10.165279,0.021077,-0.088386,-0.033787,0.666285,-2.965606,120.507545,31.314370501,121.238663683,15.815273,-5.670079,6.993687,0.092411
35718,11760414,729375926,2020,11,10,7,36,17,0,3.205981,0.448730,9.623516,-0.034374,-0.110386,-0.017223,0.664294,-3.033457,120.496353,31.314371149,121.238663065,15.815529,-5.691954,7.016377,0.093610
35719,11760514,739375926,2020,11,10,7,36,17,0,2.595279,-0.676832,8.749706,0.026605,0.023479,-0.048502,0.654914,-3.038616,120.482285,31.314371798,121.238662445,15.815735,-5.701379,7.044308,0.083786
35720,11760614,749375926,2020,11,10,7,36,17,0,3.009575,0.081243,9.038692,0.023086,-0.043066,-0.011723,0.669751,-3.041463,120.454880,31.314372450,121.238661824,15.815894,-5.716716,7.070411,0.078267
35721,11760714,759375926,2020,11,10,7,36,17,0,2.075776,0.349785,8.098696,0.016164,0.039146,-0.010650,0.678904,-3.039389,120.446671,31.314373103,121.238661202,15.815996,-5.731278,7.091356,0.065215
35722,11760814,769375926,2020,11,10,7,36,17,0,2.587877,1.752732,8.920595,0.024167,0.063736,-0.048909,0.696589,-3.001854,120.421730,31.314373758,121.238660579,15.816028,-5.752132,7.106461,0.052887
35723,11760914,779375926,2020,11,10,7,36,17,0,2.751054,0.512319,9.459678,-0.076851,0.071047,0.019311,0.670420,-2.965443,120.418159,31.314374413,121.238659954,15.815971,-5.779048,7.124288,0.050727
35724,11761014,789375926,2020,11,10,7,36,17,0,2.241754,-0.829680,10.223107,-0.047661,0.111865,-0.033133,0.637728,-2.903432,120.406769,31.314375070,121.238659327,15.815928,-5.785971,7.147624,0.052656
35725,11761114,799375926,2020,11,10,7,36,17,0,2.003088,-0.406753,10.764005,0.011287,0.021947,-0.032479,0.635960,-2.862296,120.389351,31.314375729,121.238658700,15.815950,-5.789696,7.169415,0.060459
35726,11761214,809375926,2020,11,10,7,36,17,0,2.086063,0.059475,9.269952,0.013828,-0.073041,-0.028032,0.642448,-2.888025,120.377151,31.314376389,121.238658073,15.816036,-5.799277,7.188142,0.061604
35727,11761314,819375926,2020,11,10,7,36,17,0,2.557108,0.508329,7.956496,0.029511,0.000798,-0.045642,0.652360,-2.904825,120.356392,31.314377051,121.238657445,15.816107,-5.814357,7.208879,0.046765
35728,11761414,829375926,2020,11,10,7,36,17,0,3.026613,1.592427,8.994190,-0.015937,0.012679,-0.010246,0.662176,-2.886905,120.341461,31.314377714,121.238656815,15.815989,-5.840957,7.227702,0.035091
35729,11761514,839375926,2020,11,10,7,36,17,0,2.382828,0.281190,8.952851,-0.031921,0.115543,-0.015765,0.635349,-2.845336,120.337471,31.314378378,121.238656183,15.815834,-5.861078,7.248823,0.025132
35730,11761614,849375926,2020,11,10,7,36,17,0,1.866008,-0.343550,10.373385,-0.024748,0.041915,-0.017250,0.617588,-2.788959,120.328781,31.314379044,121.238655550,15.815645,-5.870745,7.266825,0.026948
35731,11761714,859375926,2020,11,10,7,36,17,0,2.779474,-1.024045,10.300525,-0.011468,-0.066817,-0.013097,0.608806,-2.815300,120.317497,31.314379711,121.238654917,15.815567,-5.877604,7.292723,0.034872
35732,11761814,869375926,2020,11,10,7,36,17,0,2.057631,-0.719711,9.761727,0.061779,0.036349,-0.059813,0.623745,-2.808918,120.292213,31.314380368,121.238654298,15.816123,-5.876295,7.314232,0.035662
35733,11761914,879375926,2020,11,10,7,36,17,0,3.215673,1.455615,10.120477,0.030457,-0.070594,-0.031492,0.661331,-2.833857,120.258743,31.314381027,121.238653679,15.816799,-5.893715,7.329761,0.042532
35734,11762014,889375926,2020,11,10,7,36,17,0,2.202377,0.359087,8.813421,-0.014478,0.065509,-0.002581,0.659957,-2.829615,120.255112,31.314381687,121.238653057,15.817518,-5.911585,7.345954,0.039381
35735,11762114,899375926,2020,11,10,7,36,17,0,1.964258,0.417136,8.933107,0.027960,0.023938,-0.037678,0.671593,-2.796577,120.239677,31.314382348,121.238652435,15.818125,-5.917871,7.356917,0.030262
35736,11760617,749680926,2020,11,10,7,36,17,0,,,,,,,,,,,,,,,
35737,11760617,749680833,2020,11,10,7,36,17,0,,,,,,,,,,,,,,,
35738,11762214,909375833,2020,11,10,7,36,17,0,2.944852,0.099977,9.324655,0.017228,0.040675,-0.017844,0.680203,-2.781760,120.228226,31.314383010,121.238651812,15.818685,-5.930817,7.376490,0.025015
35739,11762314,919375833,2020,11,10,7,36,17,0,2.423176,-0.062509,10.785687,-0.019073,0.159859,-0.022565,0.680096,-2.713233,120.220650,31.314383961,121.238650910,15.817978,-5.946642,7.402020,0.027069
35740,11762414,929375833,2020,11,10,7,36,17,0,1.810741,-0.318243,11.444427,0.013892,0.097982,-0.017121,0.678981,-2.632288,120.210159,31.314384570,121.238650329,15.816996,-5.946175,7.410992,0.038820
35741,11762514,939375833,2020,11,10,7,36,17,0,2.375417,-0.253359,10.581424,0.042019,-0.044508,-0.030996,0.693141,-2.636278,120.196274,31.314385180,121.238649748,15.816148,-5.945775,7.421638,0.050335
35742,11762614,949375833,2020,11,10,7,36,17,0,2.188401,0.093529,9.199775,0.022072,0.033691,-0.033136,0.708716,-2.636913,120.177315,31.314385791,121.238649165,15.815378,-5.951488,7.433891,0.049223
35743,11762714,959375833,2020,11,10,7,36,17,0,2.493299,0.568514,8.960617,0.035346,0.021613,-0.019035,0.728824,-2.621993,120.169724,31.314386404,121.238648582,15.814525,-5.958484,7.442236,0.040112
35744,11762814,969375833,2020,11,10,7,36,17,0,3.293993,1.094500,9.098606,-0.003779,0.057099,0.005022,0.738231,-2.615539,120.159630,31.314387019,121.238647997,15.813614,-5.975737,7.456046,0.034401
35745,11762914,979375833,2020,11,10,7,36,17,0,1.592454,0.307806,9.583078,-0.012837,0.173406,-0.013241,0.728246,-2.525049,120.163025,31.314387634,121.238647411,15.812677,-5.984203,7.463412,0.029833
35746,11763014,989375833,2020,11,10,7,36,17,0,2.107691,-0.258167,9.646291,-0.024070,-0.011835,-0.000148,0.721208,-2.499652,120.159546,31.314388251,121.238646823,15.811735,-5.988065,7.469520,0.029147
35747,11763114,999375833,2020,11,10,7,36,17,0,2.741156,-0.360325,9.208239,0.013886,0.031316,-0.043336,0.722657,-2.499474,120.144424,31.314388870,121.238646236,15.810811,-5.989124,7.486996,0.024351
35748,11763214,9376833,2020,11,10,7,36,18,0,2.216220,0.024089,9.618760,0.006901,0.124816,-0.036219,0.730735,-2.451592,120.120995,31.314389490,121.238645647,15.809836,-5.994446,7.499779,0.020607
35749,11763314,19376833,2020,11,10,7,36,18,0,1.876729,0.573431,10.377736,0.029736,0.068972,-0.020802,0.743601,-2.389801,120.107948,31.314390112,121.238645057,15.808907,-5.998774,7.507623,0.022669
35750,11763414,29376833,2020,11,10,7,36,18,0,2.001113,0.224025,9.883307,-0.010489,-0.020598,-0.024626,0.745672,-2.392233,120.101830,31.314390735,121.238644467,15.808052,-6.006194,7.512935,0.026181
35751,11763514,39376833,2020,11,10,7,36,18,0,2.335867,0.332902,9.204233,0.015082,0.000002,-0.017859,0.752926,-2.395365,120.090218,31.314391359,121.238643875,15.807186,-6.011843,7.523165,0.020914
35752,11763614,49376833,2020,11,10,7,36,18,0,1.823882,0.447932,8.722675,0.018730,0.022923,-0.018345,0.758724,-2.386213,120.088074,31.314391984,121.238643282,15.806274,-6.018451,7.531464,0.010166
35753,11763714,59376833,2020,11,10,7,36,18,0,2.459040,0.692303,8.779858,-0.006025,0.025298,-0.014967,0.757177,-2.377084,120.078346,31.314392610,121.238642689,15.805258,-6.029055,7.537989,-0.001325
35754,11763814,69376833,2020,11,10,7,36,18,0,1.922519,0.439518,9.521794,-0.029305,0.092378,-0.009888,0.746921,-2.339511,120.076302,31.314393238,121.238642093,15.804172,-6.038976,7.546828,-0.006997
35755,11763914,79376833,2020,11,10,7,36,18,0,2.008812,-0.050896,9.699886,-0.002703,0.003435,-0.033286,0.734899,-2.319394,120.063446,31.314393867,121.238641497,15.803080,-6.041744,7.553510,-0.008738
35756,11764014,89376833,2020,11,10,7,36,18,0,2.823577,0.409639,9.621551,0.013486,-0.021493,-0.030066,0.743582,-2.335170,120.043091,31.314394497,121.238640900,15.802024,-6.049802,7.566185,-0.008780
35757,11764114,99376833,2020,11,10,7,36,18,0,1.671249,0.527778,8.798483,0.003404,0.047269,-0.019926,0.749147,-2.326744,120.033035,31.314395129,121.238640302,15.800930,-6.058784,7.573807,-0.016318
35758,11763117,999682833,2020,11,10,7,36,17,0,,,,,,,,,,,,,,,
35759,11763117,999680741,2020,11,10,7,36,17,0,,,,,,,,,,,,,,,
35760,11764214,109374741,2020,11,10,7,36,18,0,2.348405,0.615188,9.425619,0.020463,-0.022666,-0.002612,0.760248,-2.323520,120.029594,31.314395761,121.238639702,15.799777,-6.066463,7.579516,-0.022949
35761,11764314,119374741,2020,11,10,7,36,18,0,2.250437,0.016400,9.681487,-0.011350,0.025421,-0.005822,0.760969,-2.337045,120.038445,31.314396959,121.238638579,15.798685,-6.092531,7.613242,-0.024893
35762,11764414,129374741,2020,11,10,7,36,18,0,1.637229,-0.350858,10.317729,0.030410,0.010704,-0.052732,0.768287,-2.308995,120.012627,31.314397684,121.238637905,15.798472,-6.098629,7.633717,-0.022032
35763,11764514,139374741,2020,11,10,7,36,18,0,2.231865,0.572115,10.735009,0.043116,-0.079182,-0.015944,0.796074,-2.335922,119.996162,31.314398410,121.238637230,15.798333,-6.112301,7.655582,-0.012951
35764,11764614,149374741,2020,11,10,7,36,18,0,1.933878,0.175010,9.344524,0.004376,-0.055109,-0.015703,0.803498,-2.373789,119.984100,31.314399138,121.238636554,15.798256,-6.128111,7.675500,-0.010488
35765,11764714,159374741,2020,11,10,7,36,18,0,2.016244,0.162598,9.135977,0.049894,-0.016528,-0.024004,0.822856,-2.377438,119.969772,31.314399867,121.238635877,15.798146,-6.138969,7.696691,-0.017641
35766,11764814,169374741,2020,11,10,7,36,18,0,2.553869,0.777957,8.459622,0.017004,-0.053544,-0.017908,0.839219,-2.401238,119.954720,31.314400597,121.238635199,15.798011,-6.157863,7.718544,-0.026804
35767,11764914,179374741,2020,11,10,7,36,18,0,2.515300,-0.260105,8.531096,0.028095,0.080965,-0.027594,0.842596,-2.382670,119.942154,31.314401329,121.238634520,15.797758,-6.172864,7.745646,-0.039357
35768,11765014,189374741,2020,11,10,7,36,18,0,2.328853,0.251207,9.951242,0.020098,0.077202,-0.009859,0.859948,-2.321403,119.927780,31.314402062,121.238633839,15.797384,-6.187460,7.769470,-0.041038
35769,11765114,199374741,2020,11,10,7,36,18,0,2.020261,0.733969,10.466568,0.030351,0.028407,-0.012107,0.878184,-2.297673,119.914558,31.314402797,121.238633158,15.797092,-6.202750,7.789501,-0.035143
35770,11765214,209374741,2020,11,10,7,36,18,0,1.845359,0.419369,10.171911,0.046926,-0.005415,-0.018327,0.891888,-2.285201,119.905159,31.314403533,121.238632475,15.796842,-6.216091,7.807492,-0.029318
35771,11765314,219374741,2020,11,10,7,36,18,0,2.345967,0.706294,9.579836,-0.000376,-0.087741,-0.001933,0.903892,-2.316485,119.893997,31.314404271,121.238631791,15.796640,-6.236278,7.825922,-0.024954
35772,11765414,229374741,2020,11,10,7,36,18,0,2.563863,0.319903,9.170255,0.006843,-0.046112,-0.004198,0.910422,-2.351180,119.887169,31.314405009,121.238631106,15.796417,-6.252776,7.849260,-0.029703
35773,11765514,239374741,2020,11,10,7,36,18,0,2.285645,0.166715,9.448679,0.010192,0.002145,0.002322,0.914829,-2.358664,119.883263,31.314405749,121.238630420,15.796132,-6.267633,7.874639,-0.032852
35774,11765614,249374741,2020,11,10,7,36,18,0,2.264538,0.599470,9.927848,0.034522,-0.049277,-0.011253,0.924564,-2.368724,119.867592,31.314406491,121.238629732,15.795890,-6.282023,7.895372,-0.031453
35775,11765714,259374741,2020,11,10,7,36,18,0,1.840842,0.482154,9.479236,0.011728,-0.054221,-0.007023,0.934616,-2.394923,119.860710,31.314407234,121.238629043,15.795674,-6.298097,7.913363,-0.029011
35776,11765814,269374741,2020,11,10,7,36,18,0,2.348746,1.254208,9.319147,0.011214,-0.085831,-0.017695,0.948998,-2.435563,119.844780,31.314407977,121.238628353,15.795438,-6.317529,7.930962,-0.031753
35777,11765914,279374741,2020,11,10,7,36,18,0,3.118225,0.665764,9.258564,-0.001729,-0.032999,-0.002609,0.949060,-2.466801,119.838623,31.314408723,121.238627661,15.795227,-6.339686,7.956558,-0.035507
35778,11766014,289374741,2020,11,10,7,36,18,0,2.465263,0.213383,9.546874,-0.004573,0.065010,-0.013554,0.941962,-2.448652,119.828896,31.314409469,121.238626967,15.795003,-6.357899,7.984272,-0.036568
35779,11766114,299374741,2020,11,10,7,36,18,0,1.935685,0.173789,10.239718,0.012992,0.005753,-0.016157,0.945952,-2.411677,119.818817,31.314410218,121.238626273,15.794765,-6.369685,8.004588,-0.032220
35780,11766214,309374741,2020,11,10,7,36,18,0,2.639736,0.791243,10.063023,0.002725,-0.054330,0.002746,0.958912,-2.439295,119.813156,31.314410968,121.238625577,15.794580,-6.389309,8.027363,-0.026597
35781,11766314,319374741,2020,11,10,7,36,18,0,2.213295,1.038146,9.650290,0.015868,0.035418,-0.016916,0.964581,-2.432783,119.805275,31.314411719,121.238624880,15.794413,-6.408355,8.048518,-0.027265
35782,11766414,329374741,2020,11,10,7,36,18,0,2.113974,0.765036,10.082658,0.001862,0.029131,-0.008912,0.963271,-2.406207,119.800781,31.314412472,121.238624181,15.794334,-6.427658,8.067226,-0.024421
35783,11766514,339374741,2020,11,10,7,36,18,0,2.045356,0.468144,9.953815,-0.013930,-0.015968,-0.004345,0.956705,-2.403709,119.797707,31.314413225,121.238623480,15.794215,-6.444818,8.085325,-0.019556
35784,11766614,349374741,2020,11,10,7,36,18,0,2.550997,0.402266,9.967578,-0.006685,-0.040275,-0.012115,0.958087,-2.413521,119.793106,31.314413980,121.238622778,15.794237,-6.461298,8.107101,-0.016271
35785,11765617,249680741,2020,11,10,7,36,18,0,,,,,,,,,,,,,,,
35786,11765617,249680647,2020,11,10,7,36,18,0,,,,,,,,,,,,,,,
35787,11766714,359374647,2020,11,10,7,36,18,0,2.364489,0.150148,8.756455,0.013985,-0.021726,-0.007285,0.959225,-2.429807,119.787956,31.314414736,121.238622075,15.794202,-6.476364,8.132381,-0.022249
35788,11766814,369374647,2020,11,10,7,36,18,0,2.559949,0.839714,9.040801,0.033843,0.013659,-0.011435,0.973361,-2.426910,119.782051,31.314416042,121.238620859,15.793775,-6.503757,8.169330,-0.038674
35789,11766914,379374647,2020,11,10,7,36,18,0,2.820295,1.002894,9.950647,-0.008889,0.055669,0.007773,0.974167,-2.404886,119.778831,31.314416796,121.238620155,15.793965,-6.527199,8.190551,-0.038837
35790,11767014,389374647,2020,11,10,7,36,18,0,1.588631,0.279126,10.698854,-0.010617,0.055210,-0.001721,0.962099,-2.360171,119.782204,31.314417552,121.238619450,15.794191,-6.540485,8.206896,-0.030807
35791,11767114,399374647,2020,11,10,7,36,18,0,2.547233,-0.024417,10.560189,0.011591,-0.084598,-0.000212,0.960294,-2.383128,119.776169,31.314418309,121.238618743,15.794509,-6.552053,8.226361,-0.019029
35792,11767214,409374647,2020,11,10,7,36,18,0,2.050078,0.196576,9.792134,0.030317,-0.039519,-0.004017,0.971301,-2.410630,119.775673,31.314419068,121.238618036,15.794889,-6.563438,8.247292,-0.015297
35793,11767314,419374647,2020,11,10,7,36,18,0,2.380300,0.973843,9.224426,0.010630,-0.013660,0.017459,0.982181,-2.434400,119.771645,31.314419828,121.238617328,15.795283,-6.582289,8.265449,-0.016319
35794,11767414,429374647,2020,11,10,7,36,18,0,2.250825,1.108538,10.213675,0.009333,0.006863,-0.010383,0.986550,-2.418248,119.770676,31.314420589,121.238616617,15.795676,-6.600035,8.281582,-0.014270
35795,11767514,439374647,2020,11,10,7,36,18,0,2.151569,0.413125,9.990711,-0.026299,0.016399,0.012106,0.974427,-2.421992,119.775085,31.314421351,121.238615906,15.796126,-6.619152,8.298880,-0.007185
35796,11767614,449374647,2020,11,10,7,36,18,0,2.155865,0.022807,10.076437,-0.012423,-0.007086,0.010098,0.967613,-2.409157,119.773567,31.314422115,121.238615192,15.796600,-6.629838,8.317505,-0.001460
35797,11767714,459374647,2020,11,10,7,36,18,0,2.510780,-0.146198,9.169488,0.001936,-0.029771,-0.008130,0.967228,-2.434622,119.770111,31.314422880,121.238614479,15.797129,-6.638823,8.340909,-0.001299
35798,11767814,469374647,2020,11,10,7,36,18,0,2.465332,0.665589,9.409504,0.046264,0.059590,-0.023904,0.983429,-2.409762,119.760849,31.314423647,121.238613764,15.797620,-6.651584,8.363700,-0.004951
35799,11767914,479374647,2020,11,10,7,36,18,0,2.207408,1.227391,10.102442,-0.009038,0.086097,0.012625,0.990520,-2.364920,119.759651,31.314424415,121.238613048,15.798135,-6.675010,8.380476,0.000287
35800,11768014,489374647,2020,11,10,7,36,18,0,1.746650,0.988679,10.408294,-0.021403,0.044890,0.007882,0.984038,-2.325867,119.766129,31.314425184,121.238612330,15.798685,-6.693368,8.393339,0.008515
35801,11768114,499374647,2020,11,10,7,36,18,0,2.243475,-0.054365,9.982663,-0.014009,-0.032614,-0.001791,0.968645,-2.324532,119.765114,31.314425955,121.238611611,15.799330,-6.705065,8.410985,0.015497
35802,11768214,509374647,2020,11,10,7,36,18,0,2.378803,-0.067262,9.353859,-0.013135,-0.014567,0.005170,0.962581,-2.334515,119.762451,31.314426726,121.238610890,15.799987,-6.716549,8.433750,0.015814
35803,11768314,519374647,2020,11,10,7,36,18,0,2.574282,0.625835,9.536897,0.018995,0.017449,-0.020088,0.970066,-2.332610,119.754501,31.314427500,121.238610169,15.800618,-6.729702,8.456886,0.014782
35804,11768414,529374647,2020,11,10,7,36,18,0,1.999850,0.531395,9.633904,0.009175,0.051159,-0.009860,0.970561,-2.304709,119.751030,31.314428275,121.238609447,15.801260,-6.746452,8.475874,0.015886
35805,11768514,539374647,2020,11,10,7,36,18,0,1.428937,1.059740,9.926157,-0.016315,0.002641,0.015230,0.973704,-2.289057,119.752502,31.314429051,121.238608723,15.801935,-6.763702,8.486179,0.020552
35806,11768614,549374647,2020,11,10,7,36,18,0,2.435762,0.822813,9.758213,-0.004654,-0.063784,-0.000159,0.970328,-2.313925,119.751511,31.314429828,121.238607997,15.802640,-6.779689,8.501510,0.022368
35807,11768714,559374647,2020,11,10,7,36,18,0,2.535189,0.027445,9.350000,-0.010689,-0.009744,-0.006118,0.961126,-2.333961,119.752876,31.314430606,121.238607271,15.803367,-6.794211,8.525351,0.022313
35808,11768814,569374647,2020,11,10,7,36,18,0,1.818976,0.019106,9.427485,0.009144,0.049163,-0.012107,0.960614,-2.312032,119.749199,31.314431386,121.238606543,15.804021,-6.804060,8.545818,0.020922
35809,11768914,579374647,2020,11,10,7,36,18,0,1.939485,0.588942,10.086947,0.015969,-0.043054,-0.010405,0.973582,-2.309520,119.745049,31.314432167,121.238605815,15.804760,-6.815894,8.561296,0.025112
35810,11769014,589374647,2020,11,10,7,36,18,0,2.469600,0.946658,9.870050,0.011543,-0.026867,-0.002888,0.981144,-2.340891,119.741127,31.314432949,121.238605085,15.805513,-6.834666,8.581054,0.029485
35811,11769114,599374647,2020,11,10,7,36,18,0,1.754808,0.553501,10.132788,-0.024395,0.013646,0.008398,0.974515,-2.328904,119.741043,31.314433732,121.238604353,15.806337,-6.851312,8.596320,0.035971
35812,11768117,499680647,2020,11,10,7,36,18,0,,,,,,,,,,,,,,,
35813,11768117,499680554,2020,11,10,7,36,18,0,,,,,,,,,,,,,,,
35814,11769214,609374554,2020,11,10,7,36,18,0,2.441044,0.137808,9.843573,0.004438,-0.076386,-0.001913,0.970765,-2.352916,119.738136,31.314434517,121.238603621,15.807232,-6.862267,8.615965,0.040117
35815,11769314,619374554,2020,11,10,7,36,18,0,2.004485,0.133629,9.151352,0.015572,-0.020264,-0.018328,0.976355,-2.377798,119.738190,31.314435872,121.238602357,15.807201,-6.879735,8.651090,0.036860
35816,11769414,629374554,2020,11,10,7,36,18,0,2.334871,0.522016,9.557902,0.022226,-0.029898,-0.006823,0.987942,-2.386329,119.731812,31.314436643,121.238601637,15.806503,-6.892529,8.666697,0.032236
35817,11769514,639374554,2020,11,10,7,36,18,0,2.017626,1.311929,10.176140,-0.001064,0.010026,-0.006831,0.997488,-2.390301,119.729477,31.314437416,121.238600916,15.805849,-6.910535,8.680469,0.034121
35818,11769614,649375554,2020,11,10,7,36,18,0,1.652008,0.561967,10.071273,-0.015526,-0.012209,0.005718,0.990573,-2.391763,119.731224,31.314438190,121.238600192,15.805212,-6.925149,8.690529,0.037497
35819,11769714,659375554,2020,11,10,7,36,18,0,2.189090,-0.438652,9.547014,0.013760,-0.090626,-0.008044,0.987141,-2.417841,119.730865,31.314438965,121.238599468,15.804621,-6.930466,8.706460,0.036066
35820,11769814,669375554,2020,11,10,7,36,18,0,2.938402,0.005207,9.234651,0.012869,-0.054218,0.000263,1.001159,-2.476005,119.726181,31.314439742,121.238598743,15.804020,-6.941946,8.731489,0.032127
35821,11769914,679375554,2020,11,10,7,36,18,0,2.041194,0.298884,10.210066,0.034728,0.061884,-0.027619,1.014898,-2.449161,119.717384,31.314440520,121.238598017,15.803411,-6.950623,8.750351,0.030593
35822,11770014,689375554,2020,11,10,7,36,18,0,1.404380,1.016425,11.076419,0.023908,-0.018667,0.012278,1.034772,-2.442771,119.719772,31.314441300,121.238597290,15.802843,-6.964216,8.760613,0.040844
35823,11770114,699375554,2020,11,10,7,36,18,0,1.671133,0.809920,10.322979,0.021759,-0.114404,-0.005390,1.042229,-2.484852,119.716537,31.314442080,121.238596562,15.802428,-6.975809,8.767693,0.049312
35824,11770214,709375554,2020,11,10,7,36,18,0,2.525752,-0.178828,9.536622,-0.003192,-0.109625,-0.006004,1.045360,-2.556548,119.714882,31.314442862,121.238595833,15.802075,-6.988235,8.784267,0.050398
35825,11770314,719375554,2020,11,10,7,36,18,0,2.495550,0.527828,9.508478,0.001577,-0.043698,0.007132,1.056013,-2.595111,119.710510,31.314443645,121.238595102,15.801705,-7.000726,8.803646,0.045865
35826,11770414,729375554,2020,11,10,7,36,18,0,2.153028,-0.001214,10.245490,0.033235,0.048818,-0.019385,1.059165,-2.584526,119.707375,31.314444429,121.238594371,15.801350,-7.009409,8.822952,0.044277
35827,11770514,739375554,2020,11,10,7,36,18,0,1.416580,0.018696,10.588297,0.006307,0.009280,-0.007941,1.065021,-2.568605,119.702629,31.314445216,121.238593638,15.801035,-7.017671,8.836151,0.053272
35828,11770614,749375554,2020,11,10,7,36,18,0,1.192266,0.639847,10.476292,0.042466,-0.053266,-0.003664,1.083492,-2.577541,119.697098,31.314446002,121.238592905,15.800797,-7.024343,8.843493,0.060216
35829,11770714,759375554,2020,11,10,7,36,18,0,2.267000,0.911511,9.606684,0.005529,-0.096755,0.004291,1.099981,-2.635268,119.694832,31.314446789,121.238592171,15.800639,-7.039786,8.853502,0.061746
35830,11770814,769375554,2020,11,10,7,36,18,0,1.966371,0.469000,9.385231,0.023512,0.040019,-0.000694,1.107304,-2.642237,119.697716,31.314447578,121.238591436,15.800481,-7.052057,8.868917,0.056250
35831,11770914,779375554,2020,11,10,7,36,18,0,1.301373,-0.211279,9.732244,-0.003278,0.080610,0.009669,1.103475,-2.597038,119.698982,31.314448368,121.238590700,15.800262,-7.058815,8.880806,0.053354
35832,11771014,789375554,2020,11,10,7,36,18,0,1.327127,-0.062798,10.669916,0.024461,-0.010464,-0.005081,1.115777,-2.581314,119.700485,31.314449158,121.238589963,15.800146,-7.060092,8.891762,0.059148
35833,11771114,799375554,2020,11,10,7,36,18,0,1.227724,0.183842,10.057032,0.018830,0.014590,-0.008151,1.126024,-2.586327,119.692451,31.314449950,121.238589226,15.800073,-7.065419,8.902126,0.063791
35834,11771214,809375554,2020,11,10,7,36,18,0,0.817973,0.568088,10.078527,0.036768,-0.009076,-0.005405,1.143176,-2.573768,119.688286,31.314450742,121.238588489,15.800072,-7.069701,8.906236,0.065393
35835,11771314,819375554,2020,11,10,7,36,18,0,1.895114,0.879346,9.827442,-0.008701,-0.040396,0.013014,1.150103,-2.608587,119.688667,31.314451534,121.238587751,15.800125,-7.083200,8.914993,0.067815
35836,11771414,829375554,2020,11,10,7,36,18,0,0.428901,0.170204,9.998815,-0.004195,0.079615,-0.005877,1.143708,-2.573579,119.693932,31.314452327,121.238587012,15.800241,-7.088209,8.920319,0.067094
35837,11771514,839375554,2020,11,10,7,36,18,0,1.662204,0.473826,10.405278,-0.004651,-0.052994,0.001230,1.144644,-2.583627,119.687332,31.314453121,121.238586273,15.800402,-7.094747,8.927139,0.073124
35838,11771614,849375554,2020,11,10,7,36,18,0,1.761481,0.536457,10.055674,-0.019561,-0.024916,-0.006929,1.141755,-2.604686,119.687103,31.314453915,121.238585533,15.800631,-7.104612,8.938578,0.077790
35839,11770617,749680554,2020,11,10,7,36,18,0,,,,,,,,,,,,,,,
35840,11770617,749680460,2020,11,10,7,36,18,0,,,,,,,,,,,,,,,
35841,11771714,859375460,2020,11,10,7,36,18,0,1.848645,0.148631,9.312233,0.000428,-0.003085,-0.013539,1.136761,-2.611747,119.683739,31.314454710,121.238584792,15.800865,-7.111932,8.950962,0.074573
35842,11771814,869375460,2020,11,10,7,36,18,0,2.851853,1.097333,9.757736,0.000664,-0.012797,-0.006074,1.144160,-2.616724,119.670189,31.314455906,121.238583680,15.800788,-7.130249,8.974098,0.070246
35843,11771914,879375460,2020,11,10,7,36,18,0,1.542028,-0.239896,9.767556,-0.025801,0.127485,0.003459,1.126663,-2.575974,119.680199,31.314456704,121.238582940,15.800176,-7.140021,8.989610,0.068744
35844,11772014,889375460,2020,11,10,7,36,18,0,0.807456,0.064098,10.295825,0.014812,0.098083,0.006073,1.127609,-2.503393,119.676743,31.314457502,121.238582199,15.799614,-7.140381,8.996803,0.070697
35845,11772114,899375460,2020,11,10,7,36,18,0,1.228582,0.849641,9.972848,0.018395,-0.021660,-0.002313,1.137948,-2.494110,119.672249,31.314458301,121.238581458,15.799103,-7.145692,9.000724,0.073623
35846,11772214,909375460,2020,11,10,7,36,18,0,1.932726,0.626105,8.919391,-0.006460,0.014635,-0.013867,1.134020,-2.497221,119.664558,31.314459100,121.238580716,15.798608,-7.156466,9.008857,0.067079
35847,11772314,919375460,2020,11,10,7,36,18,0,2.032291,0.778496,9.254028,-0.035286,0.122909,-0.003339,1.126754,-2.453168,119.661934,31.314459901,121.238579973,15.798035,-7.170505,9.021402,0.060046
35848,11772414,929375460,2020,11,10,7,36,18,0,0.885079,-0.107208,9.655486,-0.027648,0.104838,-0.003915,1.105410,-2.379520,119.663551,31.314460702,121.238579228,15.797443,-7.174128,9.030125,0.055613
35849,11772514,939375460,2020,11,10,7,36,18,0,1.097110,-0.258120,10.062774,0.000050,0.054983,-0.005178,1.096138,-2.336638,119.657768,31.314461504,121.238578484,15.796870,-7.174428,9.038633,0.056052
35850,11772614,949375460,2020,11,10,7,36,18,0,1.029810,0.264871,9.954593,-0.000802,-0.001399,-0.003062,1.099354,-2.324877,119.653893,31.314462307,121.238577739,15.796318,-7.177574,9.044673,0.057068
35851,11772714,959375460,2020,11,10,7,36,18,0,1.560449,0.741067,9.699953,0.015409,-0.020009,-0.017825,1.106551,-2.336905,119.643852,31.314463110,121.238576994,15.795816,-7.184644,9.052375,0.055434
35852,11772814,969375460,2020,11,10,7,36,18,0,1.486710,0.863069,9.757848,0.000224,-0.001241,0.009491,1.106606,-2.338455,119.643288,31.314463915,121.238576248,15.795284,-7.196692,9.059880,0.053026
35853,11772914,979375460,2020,11,10,7,36,18,0,1.217541,0.224326,9.680886,-0.030375,0.000841,0.009861,1.094679,-2.338192,119.645805,31.314464719,121.238575501,15.794782,-7.204193,9.066544,0.051781
35854,11773014,989375460,2020,11,10,7,36,18,0,1.009281,-0.182865,9.635992,0.002680,-0.011927,-0.013019,1.087376,-2.339337,119.646271,31.314465524,121.238574753,15.794260,-7.204292,9.073944,0.047449
35855,11773114,999375460,2020,11,10,7,36,18,0,2.046473,0.455965,9.746246,-0.002608,-0.074366,-0.014946,1.092168,-2.375792,119.634415,31.314466330,121.238574005,15.793754,-7.211312,9.085352,0.046754
35856,11773214,9375460,2020,11,10,7,36,19,0,1.036847,-0.398121,9.074591,-0.009133,0.103999,-0.011656,1.082445,-2.357403,119.632278,31.314467137,121.238573256,15.793217,-7.214666,9.097108,0.040341
35857,11773314,19375460,2020,11,10,7,36,19,0,1.227100,1.194049,10.437618,0.025009,0.011947,-0.020912,1.101343,-2.319652,119.617050,31.314467945,121.238572508,15.792675,-7.219915,9.101720,0.040680
35858,11773414,29375460,2020,11,10,7,36,19,0,1.102995,0.202883,9.662559,-0.024265,0.039684,0.007655,1.089962,-2.311832,119.619370,31.314468754,121.238571758,15.792226,-7.228474,9.107359,0.041847
35859,11773514,39375460,2020,11,10,7,36,19,0,0.643736,0.368939,10.186227,0.003321,0.021373,0.001932,1.090918,-2.282874,119.618279,31.314469562,121.238571008,15.791724,-7.230132,9.110341,0.041378
35860,11773614,49375460,2020,11,10,7,36,19,0,1.621783,0.438475,9.869151,-0.009474,0.010192,0.001251,1.085757,-2.276252,119.614548,31.314470371,121.238570257,15.791301,-7.236541,9.117300,0.041772
35861,11773714,59375460,2020,11,10,7,36,19,0,0.972918,-0.289130,9.251057,-0.023283,0.040645,0.013768,1.071561,-2.261313,119.618622,31.314471181,121.238569506,15.790915,-7.240057,9.126621,0.037871
35862,11773814,69375460,2020,11,10,7,36,19,0,1.510459,0.080820,9.349184,0.014233,0.027051,-0.030744,1.070830,-2.238988,119.609306,31.314471991,121.238568754,15.790468,-7.239587,9.136215,0.031147
35863,11773914,79375460,2020,11,10,7,36,19,0,1.246192,0.359663,9.353528,-0.006564,0.039462,-0.006092,1.072308,-2.224026,119.607857,31.314472803,121.238568003,15.790028,-7.248462,9.145942,0.025918
35864,11774014,89375460,2020,11,10,7,36,19,0,0.683886,0.929056,9.503839,-0.020003,0.082905,0.008952,1.069124,-2.185225,119.602081,31.314473615,121.238567250,15.789574,-7.257190,9.149148,0.020987
35865,11774114,99375460,2020,11,10,7,36,19,0,0.534584,0.509173,9.998269,-0.032254,0.018937,-0.001238,1.053166,-2.148225,119.602791,31.314474427,121.238566496,15.789109,-7.261841,9.147836,0.018658
35866,11774214,109375460,2020,11,10,7,36,19,0,1.510119,-0.293668,9.267985,-0.028130,-0.035788,-0.006278,1.034915,-2.171779,119.600998,31.314475239,121.238565743,15.788636,-7.264841,9.156577,0.014789
35867,11774314,119375460,2020,11,10,7,36,19,0,1.261228,0.144658,9.365978,-0.007187,0.048991,-0.011061,1.030460,-2.165120,119.592148,31.314476063,121.238564978,15.789091,-7.267949,9.168796,0.011547
35868,11774414,129375460,2020,11,10,7,36,19,0,0.638985,0.170714,9.148334,-0.002074,0.028091,-0.003572,1.023457,-2.136409,119.590424,31.314476888,121.238564213,15.789503,-7.269793,9.172700,0.007118
35869,11774514,139375460,2020,11,10,7,36,19,0,1.070212,0.291273,9.178758,0.003012,-0.025922,0.000250,1.024204,-2.140960,119.591393,31.314477713,121.238563447,15.789859,-7.273486,9.176874,0.002360
35870,11774614,149375460,2020,11,10,7,36,19,0,0.759334,0.733371,9.118752,-0.012963,0.052313,-0.002725,1.021389,-2.127762,119.588417,31.314478538,121.238562681,15.790189,-7.280932,9.180288,-0.004056
35871,11773117,999681460,2020,11,10,7,36,18,0,,,,,,,,,,,,,,,
35872,11773117,999680368,2020,11,10,7,36,18,0,,,,,,,,,,,,,,,
35873,11774714,159374368,2020,11,10,7,36,19,0,1.083764,0.409277,9.594608,-0.015302,0.020627,0.002677,1.011483,-2.105895,119.586052,31.314479363,121.238561915,15.790488,-7.286622,9.183942,-0.007426
35874,11774814,169374368,2020,11,10,7,36,19,0,1.117159,-0.324806,9.667725,-0.016189,0.019706,-0.000550,0.999476,-2.104104,119.589729,31.314480510,121.238560856,15.790053,-7.279491,9.183222,-0.008941
35875,11774914,179374368,2020,11,10,7,36,19,0,0.513547,-0.010625,9.505465,-0.014797,0.057476,-0.001815,0.993786,-2.082830,119.582268,31.314481219,121.238560208,15.789855,-7.268953,9.175612,-0.009698
35876,11775014,189374368,2020,11,10,7,36,19,0,0.905656,0.718805,9.917520,0.016925,-0.029780,-0.013559,1.002645,-2.081895,119.574196,31.314481928,121.238559560,15.789636,-7.259370,9.165828,-0.010040
35877,11775114,199374368,2020,11,10,7,36,19,0,1.310814,0.649609,9.732975,-0.021903,0.000481,-0.014149,0.997066,-2.103190,119.567917,31.314482637,121.238558911,15.789447,-7.257768,9.158895,-0.008604
35878,11775214,209374368,2020,11,10,7,36,19,0,0.452651,-0.290005,9.590261,-0.039947,0.082647,0.010692,0.976679,-2.074017,119.568039,31.314483346,121.238558262,15.789256,-7.249972,9.150767,-0.009435
35879,11775314,219374368,2020,11,10,7,36,19,0,0.589624,0.053658,9.633634,-0.000948,-0.018391,0.007682,0.974238,-2.070482,119.563477,31.314484056,121.238557613,15.789068,-7.236174,9.142061,-0.009774
35880,11775414,229374368,2020,11,10,7,36,19,0,1.353397,0.140361,9.220469,0.007746,-0.016525,-0.026000,0.973992,-2.087086,119.554283,31.314484766,121.238556963,15.788875,-7.226423,9.135668,-0.014441
35881,11775514,239374368,2020,11,10,7,36,19,0,1.257424,0.413998,9.404952,-0.019734,0.078995,0.001643,0.974660,-2.079196,119.551140,31.314485477,121.238556314,15.788603,-7.223867,9.132336,-0.016968
35882,11775614,249374368,2020,11,10,7,36,19,0,0.137184,0.479320,10.154717,-0.009358,0.085153,-0.008258,0.969216,-2.023689,119.549637,31.314486188,121.238555664,15.788341,-7.215312,9.120344,-0.016191
35883,11775714,259374368,2020,11,10,7,36,19,0,0.237716,-0.494678,9.974241,-0.024250,0.010150,-0.003013,0.956299,-2.012783,119.548378,31.314486898,121.238555014,15.788149,-7.202581,9.108230,-0.012075
35884,11775814,269374368,2020,11,10,7,36,19,0,0.878512,-0.008631,9.725754,0.001278,-0.003412,0.003398,0.956339,-2.021466,119.539200,31.314487609,121.238554365,15.787969,-7.189995,9.101779,-0.011297
35885,11775914,279374368,2020,11,10,7,36,19,0,0.951273,0.324016,9.705559,0.008812,0.039590,-0.012521,0.960360,-2.015821,119.534416,31.314488321,121.238553715,15.787784,-7.180524,9.094608,-0.012055
35886,11776014,289374368,2020,11,10,7,36,19,0,0.810281,0.050104,9.595056,-0.016677,0.044126,0.008332,0.955591,-1.999833,119.535141,31.314489033,121.238553065,15.787597,-7.174088,9.088077,-0.011503
35887,11776114,299374368,2020,11,10,7,36,19,0,0.108184,0.431613,9.653896,-0.008686,0.033266,0.005219,0.954926,-1.977765,119.532425,31.314489745,121.238552415,15.787400,-7.163721,9.075433,-0.012687
35888,11776214,309374368,2020,11,10,7,36,19,0,0.815487,0.111121,9.286658,-0.007352,0.007201,0.001144,0.948582,-1.980383,119.531853,31.314490456,121.238551765,15.787218,-7.153768,9.065128,-0.016322
35889,11776314,319374368,2020,11,10,7,36,19,0,0.974071,0.208260,9.378945,-0.004415,0.032753,-0.013578,0.944172,-1.976627,119.523735,31.314491168,121.238551116,15.787016,-7.145743,9.059357,-0.019372
35890,11776414,329374368,2020,11,10,7,36,19,0,0.383152,0.473982,9.965017,-0.025600,0.095163,-0.000307,0.935775,-1.934646,119.518654,31.314491881,121.238550465,15.786800,-7.139032,9.048252,-0.019725
35891,11776514,339374368,2020,11,10,7,36,19,0,0.753760,-0.119253,9.986780,-0.019383,-0.022827,-0.005901,0.924258,-1.933303,119.514648,31.314492593,121.238549815,15.786582,-7.128014,9.039506,-0.015190
35892,11776614,349374368,2020,11,10,7,36,19,0,0.400805,-0.714355,9.085967,0.015865,0.020140,-0.015397,0.916475,-1.938212,119.512054,31.314493306,121.238549165,15.786430,-7.111925,9.033705,-0.018692
35893,11776714,359374368,2020,11,10,7,36,19,0,0.898519,0.641862,9.415734,-0.015980,0.004851,0.006268,0.928619,-1.937511,119.503792,31.314494019,121.238548515,15.786216,-7.105384,9.024072,-0.021200
35894,11776814,369374368,2020,11,10,7,36,19,0,0.461693,0.181783,9.350377,0.012378,0.051021,-0.008327,0.926082,-1.921355,119.502518,31.314494733,121.238547865,15.785943,-7.094737,9.015647,-0.027168
35895,11776914,379374368,2020,11,10,7,36,19,0,-0.168605,0.375744,9.564114,0.001798,0.052754,0.002395,0.926896,-1.897879,119.503616,31.314495446,121.238547215,15.785646,-7.085477,9.001013,-0.029219
35896,11777014,389374368,2020,11,10,7,36,19,0,0.994228,0.387342,9.969168,-0.014263,-0.032182,0.007766,0.925865,-1.903640,119.498955,31.314496159,121.238546565,15.785414,-7.078724,8.988766,-0.026425
35897,11777114,399374368,2020,11,10,7,36,19,0,0.835087,-0.242094,9.540430,-0.018087,0.023865,0.000805,0.916495,-1.915724,119.497017,31.314496872,121.238545915,15.785210,-7.069022,8.984290,-0.027219
35898,11777214,409374368,2020,11,10,7,36,19,0,0.350914,-0.197921,9.750231,0.004005,0.033125,-0.013380,0.914246,-1.897460,119.489433,31.314497586,121.238545264,15.784980,-7.054578,8.975497,-0.028574
35899,11777314,419374368,2020,11,10,7,36,19,0,0.625643,-0.173189,9.794380,-0.003903,-0.013031,0.001168,0.913289,-1.901761,119.486496,31.314498393,121.238544522,15.785085,-7.052889,8.978674,-0.026454
35900,11777414,429374368,2020,11,10,7,36,19,0,0.042286,0.529182,9.837206,0.013978,0.013161,-0.014825,0.918952,-1.890799,119.481445,31.314499200,121.238543780,15.785236,-7.051195,8.976796,-0.026957
35901,11775617,249680368,2020,11,10,7,36,19,0,,,,,,,,,,,,,,,
35902,11775617,249680274,2020,11,10,7,36,19,0,,,,,,,,,,,,,,,
35903,11777514,439374274,2020,11,10,7,36,19,0,0.670406,0.789334,9.932302,-0.009406,-0.026412,0.016423,0.920770,-1.903703,119.481567,31.314500007,121.238543038,15.785395,-7.057200,8.974557,-0.024253
35904,11777614,449374274,2020,11,10,7,36,19,0,0.904755,0.298294,9.847633,-0.024781,-0.011447,0.011119,0.907642,-1.919436,119.485008,31.314501129,121.238542003,15.785074,-7.056010,8.965885,-0.021497
35905,11777714,459374274,2020,11,10,7,36,19,0,-0.198427,-0.590014,9.735729,-0.015569,0.045883,-0.003351,0.893120,-1.906146,119.490692,31.314501824,121.238541361,15.785132,-7.042086,8.954631,-0.022159
35906,11777814,469374274,2020,11,10,7,36,19,0,1.095795,-0.416061,9.830615,0.005240,-0.072835,0.002357,0.895130,-1.931789,119.485184,31.314502520,121.238540719,15.785214,-7.028523,8.948820,-0.019604
35907,11777914,479374274,2020,11,10,7,36,19,0,0.487810,-0.153387,9.544164,0.014468,0.020055,-0.019535,0.902117,-1.944998,119.479050,31.314503215,121.238540078,15.785298,-7.017018,8.943216,-0.020610
35908,11778014,489374274,2020,11,10,7,36,19,0,0.275212,0.732182,9.872883,0.022001,0.048590,-0.005977,0.918376,-1.928201,119.473724,31.314503911,121.238539437,15.785370,-7.009816,8.930779,-0.020737
35909,11778114,499374274,2020,11,10,7,36,19,0,-0.073977,0.409585,10.141829,-0.002538,-0.001314,-0.005487,0.919331,-1.919928,119.479111,31.314504607,121.238538796,15.785480,-7.001515,8.914200,-0.016861
35910,11778214,509374274,2020,11,10,7,36,19,0,0.481076,0.299062,10.419588,-0.013228,-0.024544,-0.000651,0.914065,-1.936334,119.477974,31.314505302,121.238538155,15.785606,-6.994953,8.901286,-0.011435
35911,11778314,519374274,2020,11,10,7,36,19,0,0.326882,-0.368592,10.116646,-0.020336,0.020007,0.009131,0.904895,-1.939469,119.481880,31.314505997,121.238537514,15.785811,-6.984527,8.893148,-0.005350
35912,11778414,529374274,2020,11,10,7,36,19,0,0.540955,-0.714868,9.634972,0.007776,-0.045286,-0.007363,0.900025,-1.950986,119.479759,31.314506693,121.238536874,15.786048,-6.967937,8.884974,-0.004783
35913,11778514,539374274,2020,11,10,7,36,19,0,0.389792,0.043195,9.509415,0.015201,-0.004125,-0.013912,0.914162,-1.977009,119.474365,31.314507388,121.238536234,15.786295,-6.955965,8.877180,-0.006802
35914,11778614,549374274,2020,11,10,7,36,19,0,0.149108,0.854618,10.302403,0.018571,0.051574,-0.013766,0.924668,-1.960342,119.469009,31.314508084,121.238535595,15.786519,-6.948800,8.863473,-0.005002
35915,11778714,559374274,2020,11,10,7,36,19,0,-0.163708,0.258360,10.539439,-0.008668,0.005756,-0.001411,0.919881,-1.947794,119.471115,31.314508778,121.238534955,15.786773,-6.941563,8.845901,0.003077
35916,11778814,569374274,2020,11,10,7,36,19,0,0.721255,0.156547,10.318213,-0.024006,-0.094670,0.012631,0.916564,-1.993151,119.470650,31.314509473,121.238534316,15.787170,-6.934739,8.834653,0.012456
35917,11778914,579374274,2020,11,10,7,36,19,0,0.509287,-0.979412,9.078619,0.001355,-0.004880,-0.003719,0.907257,-2.021534,119.474190,31.314510167,121.238533676,15.787601,-6.919148,8.828818,0.008297
35918,11779014,589374274,2020,11,10,7,36,19,0,0.345434,-0.069601,9.427654,0.024989,0.008548,-0.000606,0.922811,-2.024034,119.470734,31.314510862,121.238533038,15.787972,-6.905030,8.821910,0.003583
35919,11779114,599374274,2020,11,10,7,36,19,0,0.087280,0.399872,9.650651,0.017516,0.042202,-0.012510,0.929854,-2.011468,119.463959,31.314511557,121.238532400,15.788346,-6.894485,8.808551,0.002053
35920,11779214,609374274,2020,11,10,7,36,19,0,0.490873,0.524581,10.872354,-0.005834,0.004483,-0.003672,0.934604,-2.003503,119.462631,31.314512252,121.238531762,15.788723,-6.888885,8.794514,0.010649
35921,11779314,619374274,2020,11,10,7,36,19,0,-0.574178,-0.184778,10.313882,-0.025769,0.015297,0.011570,0.924706,-2.001618,119.468422,31.314512946,121.238531124,15.789166,-6.877249,8.779025,0.019262
35922,11779414,629374274,2020,11,10,7,36,19,0,0.693082,0.030374,10.069795,0.031219,-0.097509,-0.000143,0.931015,-2.039540,119.463196,31.314513640,121.238530486,15.789710,-6.863088,8.767983,0.022347
35923,11779514,639374274,2020,11,10,7,36,19,0,0.283087,-0.574425,9.338364,-0.014301,0.007377,0.003812,0.926460,-2.072653,119.466415,31.314514333,121.238529849,15.790271,-6.852075,8.760884,0.022355
35924,11779614,649375274,2020,11,10,7,36,19,0,0.153020,0.251698,10.245188,0.000753,0.021034,-0.010507,0.931909,-2.062623,119.461250,31.314515027,121.238529213,15.790859,-6.840160,8.748775,0.025148
